   Wavenu Wavelen  kap100   kap198   kap296 del/al
    1/cm    nm     1/km-am  1/km-am  1/km-am K^1/2

    1800  5554.04  8.15E-2  2.06E+0  2.27E+1  1118
    1805  5538.66  6.81E-2  1.54E+0  1.82E+1  1099
    1810  5523.36  1.28E-1  9.21E-1  9.30E+0   424
    1815  5508.14  5.32E-2  1.26E+0  1.63E+1   756
    1820  5493.01  5.62E-2  1.17E+0  1.49E+1  1061
    1825  5477.96  7.40E-2  8.92E-1  1.05E+1   824
    1830  5462.99  6.03E-2  9.26E-1  1.16E+1   905
    1835  5448.11  6.56E-2  1.48E+0  1.76E+1  1757
    1840  5433.30  5.51E-2  1.44E+0  1.82E+1  1546
    1845  5418.58  4.91E-2  7.07E-1  8.86E+0   931
    1850  5403.93  4.12E-2  8.79E-1  1.15E+1  1484
    1855  5389.37  2.82E-2  8.44E-1  1.32E+1  1253
    1860  5374.88  4.41E-2  4.53E-1  5.62E+0   982
    1865  5360.47  3.37E-2  5.81E-1  8.00E+0  1913
    1870  5346.14  1.97E-2  5.73E-1  9.91E+0  1442
    1875  5331.88  3.54E-2  3.14E-1  3.99E+0   877
    1880  5317.70  1.91E-2  4.43E-1  7.06E+0  2002
    1885  5303.59  1.34E-2  4.42E-1  8.53E+0  1824
    1890  5289.56  3.52E-2  2.32E-1  2.98E+0   722
    1895  5275.61  1.51E-2  2.90E-1  4.74E+0  1489
    1900  5261.72  1.40E-2  3.04E-1  5.64E+0  2628
    1905  5247.91  4.60E-2  1.63E-1  1.84E+0  1192
    1910  5234.18  3.12E-2  1.77E-1  2.20E+0  1205
    1915  5220.51  1.79E-2  2.16E-1  3.50E+0  2630
    1920  5206.91  3.55E-2  1.81E-1  2.14E+0  4133
    1925  5193.39  4.41E-2  1.11E-1  1.14E+0   941
    1930  5179.94  1.57E-2  1.56E-1  2.61E+0  1937
    1935  5166.55  2.59E-2  1.56E-1  2.13E+0  4381
    1940  5153.23  3.98E-2  7.64E-2  7.22E-1  1581
    1945  5139.99  1.94E-2  9.98E-2  1.50E+0  1824
    1950  5126.81  2.33E-2  9.26E-2  1.22E+0  3380
    1955  5113.70  2.81E-2  5.37E-2  4.78E-1  3421
    1960  5100.65  2.05E-2  6.49E-2  8.46E-1  2482
    1965  5087.67  2.10E-2  6.30E-2  7.86E-1  3960
    1970  5074.76  2.85E-2  5.92E-2  4.98E-1 20432
    1975  5061.91  1.93E-2  5.12E-2  6.36E-1 10133
    1980  5049.13  1.68E-2  4.66E-2  6.06E-1  8702
    1985  5036.41  1.51E-2  3.35E-2  3.33E-1 22773
    1990  5023.76  1.33E-2  3.20E-2  3.89E-1 20904
    1995  5011.17  1.15E-2  2.83E-2  3.70E-1 20758
    2000  4998.64  7.50E-3  1.60E-2  1.66E-1 21057
    2005  4986.17  6.80E-3  1.51E-2  1.81E-1 21104
    2010  4973.77  5.40E-3  1.21E-2  1.44E-1 20897
    2015  4961.43  4.10E-3  8.60E-3  8.18E-2 21054
    2020  4949.15  4.00E-3  8.70E-3  9.74E-2 20788
    2025  4936.93  3.40E-3  7.30E-3  7.89E-2 20974
    2030  4924.77  5.30E-3  7.80E-3  2.59E-2 21210
    2035  4912.67  3.30E-3  6.90E-3  6.90E-2 20964
    2040  4900.62  3.00E-3  6.40E-3  6.41E-2 20885
    2045  4888.64  4.90E-3  1.00E-2  8.74E-2 20584
    2050  4876.72  5.20E-3  1.06E-2  9.27E-2 20531
    2055  4864.85  1.26E-2  2.59E-2  2.03E-1 21285
    2060  4853.05  1.28E-2  2.57E-2  1.92E-1 21262
    2065  4841.30  3.09E-2  6.42E-2  3.93E-1 18369
    2070  4829.60  3.34E-2  7.20E-2  4.43E-1 16082
    2075  4817.96  4.97E-2  1.21E-1  6.30E-1  7882
    2080  4806.38  6.99E-2  2.15E-1  9.47E-1  3138
    2085  4794.86  8.05E-2  2.15E-1  8.82E-1  4274
    2090  4783.38  1.20E-1  3.84E-1  1.30E+0  2392
    2095  4771.97  1.35E-1  3.86E-1  1.23E+0  2918
    2100  4760.61  2.28E-1  6.68E-1  1.74E+0  2470
    2105  4749.30  2.82E-1  7.55E-1  1.81E+0  2335
    2110  4738.04  4.13E-1  1.13E+0  2.33E+0  2405
    2115  4726.84  8.25E-1  2.32E+0  3.97E+0  1867
    2120  4715.70  8.80E-1  1.87E+0  2.93E+0  3178
    2125  4704.60  1.28E+0  2.76E+0  3.90E+0  2159
    2130  4693.56  1.61E+0  2.89E+0  3.65E+0  3263
    2135  4682.56  2.42E+0  3.80E+0  4.16E+0  4675
    2140  4671.62  5.08E+0  7.19E+0  7.00E+0  2949
    2145  4660.73  4.11E+0  4.89E+0  4.50E+0  5627
    2150  4649.90  5.39E+0  5.46E+0  4.66E+0  4352
    2155  4639.11  5.99E+0  5.56E+0  4.36E+0  4888
    2160  4628.37  7.83E+0  5.52E+0  4.03E+0  7843
    2165  4617.68  1.74E+1  8.87E+0  6.20E+0  4788
    2170  4607.04  7.73E+0  4.58E+0  3.27E+0  7205
    2175  4596.45  4.91E+0  2.98E+0  2.26E+0  6515
    2180  4585.91  7.34E+0  3.57E+0  3.17E+0  3343
    2185  4575.41  2.13E+0  1.52E+0  2.12E+0  1241
    2190  4564.97  1.23E+0  1.61E+0  3.10E+0   488
    2195  4554.57  1.67E+1  1.51E+1  2.05E+1   860
    2200  4544.22  3.27E+1  2.65E+1  2.62E+1  2146
    2205  4533.91  5.34E+0  3.23E+0  3.65E+0  3269
    2210  4523.65  1.57E+0  9.90E-1  1.60E+0  1212
    2215  4513.44  2.44E+0  1.47E+0  2.08E+0  1721
    2220  4503.28  9.73E+0  4.10E+0  3.61E+0  2147
    2225  4493.16  6.94E+0  3.51E+0  3.61E+0  1570
    2230  4483.08  6.60E+0  3.65E+0  5.04E+0  1286
    2235  4473.05  1.89E+1  8.50E+0  8.71E+0  1597
    2240  4463.07  1.58E+1  9.24E+0  8.56E+0  1764
    2245  4453.13  8.35E+0  6.27E+0  6.28E+0  1784
    2250  4443.23  1.05E+1  9.47E+0  1.06E+1  1498
    2255  4433.38  1.00E+1  1.04E+1  1.47E+1  1063
    2260  4423.57  3.74E+0  5.61E+0  9.51E+0  1445
    2265  4413.81  4.77E+0  7.06E+0  9.01E+0  1120
    2270  4404.08  5.48E+0  9.64E+0  1.32E+1   910
    2275  4394.41  2.98E+0  6.64E+0  1.44E+1   831
    2280  4384.77  2.59E+0  4.87E+0  1.05E+1   665
    2285  4375.17  1.95E+0  3.98E+0  7.55E+0   515
    2290  4365.62  1.51E+0  3.60E+0  7.75E+0   587
    2295  4356.11  5.49E-1  3.37E+0  1.32E+1   734
    2300  4346.64  3.04E-1  2.74E+0  1.40E+1   787
    2305  4337.21  3.88E-1  2.08E+0  9.01E+0   697
    2310  4327.82  1.13E+0  3.21E+0  8.74E+0   361
    2315  4318.48  4.55E+0  7.68E+0  1.47E+1   367
    2320  4309.17  2.25E+0  7.96E+0  2.41E+1   722
    2325  4299.90  2.61E-1  3.33E+0  2.13E+1  1423
    2330  4290.68  3.28E-1  2.09E+0  1.03E+1  1747
    2335  4281.49  3.88E+0  2.12E+0  4.42E+0   952
    2340  4272.34  3.63E+0  1.12E+1  3.03E+1  1946
    2345  4263.23  2.09E+0  1.23E+1  4.69E+1  1004
    2350  4254.16  4.53E+0  6.69E+0  1.47E+1   853
    2355  4245.13  5.32E+0  3.76E+0  7.59E+0  1034
    2360  4236.13  7.03E+0  2.04E+1  4.68E+1  2905
    2365  4227.18  4.60E+0  2.62E+1  8.30E+1   849
    2370  4218.26  2.53E+0  1.12E+1  3.12E+1   921
    2375  4209.38  1.59E+0  3.36E+0  8.97E+0   438
    2380  4200.54  1.54E+0  5.13E+0  1.50E+1   572
    2385  4191.73  3.49E+0  2.32E+1  6.50E+1   946
    2390  4182.96  2.89E+0  2.24E+1  6.31E+1  1177
    2395  4174.23  7.28E-1  5.05E+0  1.96E+1   651
    2400  4165.53  5.50E-1  6.50E+0  3.12E+1   753
    2405  4156.87  5.16E+0  3.79E+1  1.23E+2  1527
    2410  4148.25  7.04E+0  4.94E+1  1.39E+2   968
    2415  4139.66  1.43E+0  1.17E+1  4.44E+1   639
    2420  4131.10  8.52E-1  9.14E+0  3.92E+1   762
    2425  4122.59  9.54E+0  4.35E+1  1.11E+2  1620
    2430  4114.10  2.05E+1  8.91E+1  1.82E+2  1426
    2435  4105.66  7.31E+0  3.20E+1  8.21E+1   847
    2440  4097.24  3.39E+0  2.25E+1  7.10E+1   694
    2445  4088.86  5.05E+0  3.18E+1  9.26E+1   898
    2450  4080.52  2.34E+1  7.41E+1  1.49E+2  1312
    2455  4072.21  3.00E+1  9.82E+1  1.83E+2   939
    2460  4063.93  7.32E+0  3.99E+1  1.06E+2   555
    2465  4055.69  6.48E+0  4.17E+1  1.13E+2   552
    2470  4047.48  4.34E+1  1.21E+2  2.14E+2   850
    2475  4039.30  9.14E+1  2.49E+2  3.85E+2   906
    2480  4031.16  2.79E+1  1.10E+2  2.14E+2   697
    2485  4023.05  8.29E+0  3.88E+1  9.43E+1   615
    2490  4014.97  4.64E+1  9.51E+1  1.78E+2   829
    2495  4006.92  8.46E+1  1.88E+2  2.79E+2   537
    2500  3998.91  4.00E+1  1.17E+2  1.86E+2   468
    2505  3990.93  2.32E+1  7.61E+1  1.44E+2   606
    2510  3982.98  1.28E+2  1.92E+2  2.76E+2   867
    2515  3975.06  2.14E+2  3.30E+2  4.65E+2   649
    2520  3967.17  4.43E+1  8.67E+1  1.57E+2   455
    2525  3959.32  9.22E+1  1.62E+2  2.40E+2   460
    2530  3951.49  1.43E+2  2.37E+2  3.17E+2   476
    2535  3943.70  1.29E+2  1.97E+2  2.72E+2   482
    2540  3935.93  1.63E+2  2.28E+2  2.96E+2   555
    2545  3928.20  3.01E+2  3.19E+2  3.57E+2   652
    2550  3920.50  2.78E+2  3.75E+2  4.51E+2   489
    2555  3912.83  2.90E+2  3.67E+2  4.41E+2   515
    2560  3905.18  6.38E+2  5.87E+2  5.98E+2   578
    2565  3897.57  4.56E+2  5.14E+2  6.02E+2   460
    2570  3889.99  3.68E+2  4.26E+2  4.99E+2   475
    2575  3882.44  3.34E+2  3.92E+2  4.51E+2   371
    2580  3874.91  4.74E+2  4.89E+2  5.11E+2   263
    2585  3867.42  5.11E+2  4.61E+2  4.71E+2   279
    2590  3859.95  1.93E+2  2.50E+2  3.70E+2   280
    2595  3852.51  1.84E+2  3.46E+2  6.14E+2   244
    2600  3845.10  8.31E+2  1.20E+3  1.42E+3   253
    2605  3837.72  1.29E+3  9.04E+2  7.28E+2   360
    2610  3830.37  8.68E+2  4.38E+2  3.15E+2   639
    2615  3823.05  9.47E+2  4.34E+2  3.48E+2   754
    2620  3815.75  6.33E+2  3.77E+2  3.67E+2   563
    2625  3808.49  5.02E+2  3.58E+2  3.56E+2   486
    2630  3801.24  7.29E+2  6.34E+2  6.51E+2   377
    2635  3794.03  7.82E+2  8.10E+2  9.02E+2   288
    2640  3786.85  3.55E+2  5.19E+2  8.08E+2   209
    2645  3779.69  2.92E+2  4.21E+2  7.31E+2   216
    2650  3772.56  6.01E+2  5.46E+2  7.38E+2   322
    2655  3765.45  8.30E+2  6.45E+2  7.24E+2   376
    2660  3758.37  5.78E+2  4.72E+2  4.78E+2   390
    2665  3751.32  3.30E+2  4.86E+2  6.21E+2   378
    2670  3744.30  3.83E+2  6.68E+2  9.30E+2   335
    2675  3737.30  6.54E+2  7.34E+2  8.04E+2   332
    2680  3730.33  4.24E+2  8.99E+2  1.26E+3   276
    2685  3723.38  1.41E+2  3.93E+2  7.70E+2   280
    2690  3716.46  2.93E+2  4.25E+2  6.80E+2   363
    2695  3709.56  4.50E+2  8.61E+2  1.30E+3   357
    2700  3702.69  1.18E+2  4.17E+2  9.07E+2   259
    2705  3695.85  9.43E+1  2.80E+2  6.13E+2   270
    2710  3689.03  2.51E+2  5.38E+2  1.01E+3   354
    2715  3682.24  2.00E+2  4.76E+2  9.00E+2   278
    2720  3675.47  8.06E+1  2.80E+2  5.91E+2   250
    2725  3668.72  1.96E+2  6.17E+2  1.19E+3   303
    2730  3662.00  2.42E+2  6.31E+2  1.06E+3   262
    2735  3655.31  1.34E+2  4.25E+2  7.29E+2   286
    2740  3648.64  4.36E+2  9.97E+2  1.53E+3   405
    2745  3641.99  6.41E+2  1.22E+3  1.71E+3   315
    2750  3635.37  2.91E+2  6.88E+2  1.13E+3   264
    2755  3628.77  6.03E+2  1.08E+3  1.68E+3   292
    2760  3622.20  7.88E+2  1.16E+3  1.73E+3   250
    2765  3615.65  3.89E+2  6.42E+2  1.28E+3   196
    2770  3609.12  8.76E+2  1.27E+3  2.45E+3   199
    2775  3602.62  8.30E+2  1.47E+3  2.64E+3   185
    2780  3596.14  4.61E+2  1.00E+3  1.91E+3   155
    2785  3589.69  1.01E+3  1.89E+3  2.92E+3   177
    2790  3583.25  2.02E+3  3.18E+3  3.99E+3   225
    2795  3576.84  1.98E+3  2.80E+3  3.18E+3   212
    2800  3570.45  2.00E+3  2.11E+3  2.40E+3   232
    2805  3564.09  2.73E+3  2.16E+3  2.37E+3   330
    2810  3557.75  3.78E+3  2.97E+3  3.26E+3   363
    2815  3551.43  1.04E+4  7.75E+3  7.88E+3   716
    2820  3545.13  1.61E+4  1.37E+4  1.45E+4   751
    2825  3538.86  1.96E+4  1.83E+4  2.03E+4   675
    2830  3532.61  9.82E+3  7.40E+3  8.73E+3   458
    2835  3526.38  1.61E+3  1.76E+3  2.84E+3   228
    2840  3520.17  5.98E+2  8.07E+2  2.03E+3   165
    2845  3513.98  1.37E+3  1.19E+3  2.24E+3   206
    2850  3507.82  3.32E+3  1.75E+3  2.23E+3   246
    2855  3501.67  3.55E+3  2.05E+3  2.87E+3   247
    2860  3495.55  4.26E+3  3.18E+3  4.32E+3   282
    2865  3489.45  4.90E+3  4.48E+3  5.94E+3   253
    2870  3483.37  3.23E+3  4.55E+3  6.12E+3   207
    2875  3477.31  2.27E+3  3.78E+3  7.22E+3   176
    2880  3471.28  2.23E+3  3.04E+3  5.74E+3   160
    2885  3465.26  1.71E+3  2.60E+3  5.15E+3   143
    2890  3459.26  1.01E+3  1.52E+3  3.70E+3   152
    2895  3453.29  8.88E+2  1.85E+3  4.37E+3   162
    2900  3447.34  2.98E+3  5.64E+3  1.07E+4   271
    2905  3441.40  2.53E+3  5.15E+3  1.00E+4   233
    2910  3435.49  1.32E+3  3.34E+3  6.99E+3   183
    2915  3429.60  2.31E+3  4.11E+3  7.51E+3   165
    2920  3423.72  2.30E+3  6.05E+3  1.15E+4   200
    2925  3417.87  1.30E+3  4.52E+3  9.50E+3   201
    2930  3412.04  1.67E+3  4.88E+3  9.52E+3   207
    2935  3406.23  3.50E+3  7.86E+3  1.31E+4   247
    2940  3400.43  4.15E+3  1.00E+4  1.59E+4   277
    2945  3394.66  3.99E+3  8.71E+3  1.34E+4   236
    2950  3388.91  1.05E+4  1.77E+4  2.43E+4   343
    2955  3383.17  1.58E+4  2.37E+4  3.15E+4   438
    2960  3377.46  1.62E+4  2.03E+4  2.66E+4   462
    2965  3371.76  2.15E+4  2.41E+4  2.85E+4   519
    2970  3366.09  2.98E+4  2.65E+4  2.97E+4   586
    2975  3360.43  3.28E+4  2.46E+4  2.56E+4   597
    2980  3354.79  4.92E+4  3.13E+4  3.01E+4   679
    2985  3349.17  5.54E+4  3.01E+4  2.68E+4   734
    2990  3343.57  5.07E+4  2.44E+4  2.35E+4   734
    2995  3337.99  4.59E+4  2.14E+4  2.89E+4   835
    3000  3332.42  9.51E+3  6.75E+3  2.48E+4   190
    3005  3326.88  5.19E+3  5.48E+3  3.28E+4    71
    3010  3321.35  2.09E+4  7.25E+4  5.15E+5   141
    3015  3315.85  5.66E+4  1.66E+5  4.30E+5   117
    3020  3310.36  2.49E+4  1.36E+4  1.41E+4    64
    3025  3304.88  5.18E+4  2.35E+4  1.75E+4   378
    3030  3299.43  1.15E+5  3.95E+4  3.17E+4  1543
    3035  3293.99  9.71E+4  3.11E+4  2.49E+4  1497
    3040  3288.58  8.95E+4  2.97E+4  2.40E+4  1374
    3045  3283.18  9.77E+4  3.51E+4  2.76E+4  1263
    3050  3277.79  1.38E+5  4.86E+4  3.50E+4  1418
    3055  3272.43  1.46E+5  5.71E+4  4.22E+4  1214
    3060  3267.08  1.69E+5  7.39E+4  5.35E+4  1231
    3065  3261.75  1.11E+5  5.64E+4  4.21E+4   797
    3070  3256.44  6.94E+4  5.33E+4  4.42E+4   509
    3075  3251.15  3.98E+4  3.81E+4  3.84E+4   438
    3080  3245.87  3.45E+4  3.87E+4  4.42E+4   539
    3085  3240.61  2.78E+4  3.51E+4  4.46E+4   513
    3090  3235.36  2.04E+4  2.98E+4  4.34E+4   508
    3095  3230.14  1.37E+4  2.19E+4  3.41E+4   570
    3100  3224.93  4.92E+3  9.92E+3  1.63E+4   286
    3105  3219.73  5.10E+3  1.30E+4  2.43E+4   561
    3110  3214.56  4.42E+3  1.26E+4  2.45E+4   496
    3115  3209.40  1.38E+3  5.26E+3  1.16E+4   319
    3120  3204.25  8.68E+2  4.19E+3  1.07E+4   312
    3125  3199.13  5.54E+2  3.21E+3  9.73E+3   312
    3130  3194.02  3.36E+2  2.07E+3  6.32E+3   294
    3135  3188.92  3.33E+2  1.94E+3  6.25E+3   241
    3140  3183.84  2.17E+2  1.17E+3  4.01E+3   258
    3145  3178.78  1.35E+2  1.05E+3  4.03E+3   222
    3150  3173.74  1.52E+2  7.96E+2  2.84E+3   280
    3155  3168.71  1.34E+2  6.61E+2  2.55E+3   331
    3160  3163.69  7.66E+1  3.74E+2  1.95E+3   489
    3165  3158.70  6.19E+1  2.83E+2  1.41E+3   567
    3170  3153.71  4.21E+1  2.83E+2  1.40E+3   435
    3175  3148.75  3.09E+1  1.81E+2  7.94E+2   487
    3180  3143.80  3.44E+1  1.64E+2  7.16E+2   481
    3185  3138.86  2.30E+1  7.97E+1  4.19E+2   838
    3190  3133.94  1.17E+1  5.35E+1  3.26E+2   651
    3195  3129.04  1.60E+1  9.06E+1  4.66E+2   460
    3200  3124.15  1.15E+1  4.37E+1  2.33E+2   707
    3205  3119.27  5.52E+0  2.99E+1  1.79E+2   583
    3210  3114.42  6.50E+0  3.21E+1  1.33E+2   778
    3215  3109.57  4.09E+0  1.79E+1  8.18E+1   945
    3220  3104.74  3.27E+0  1.88E+1  1.05E+2   659
    3225  3099.93  3.34E+0  1.47E+1  5.88E+1  1111
    3230  3095.13  3.01E+0  1.17E+1  4.33E+1   962
    3235  3090.35  2.15E+0  1.22E+1  5.02E+1   666
    3240  3085.58  2.09E+0  6.79E+0  2.44E+1  1008
    3245  3080.82  1.30E+0  5.81E+0  2.32E+1   772
    3250  3076.08  8.33E-1  6.27E+0  2.58E+1   652
    3255  3071.36  8.39E-1  4.01E+0  1.48E+1   766
    3260  3066.65  5.14E-1  2.90E+0  1.27E+1   572
    3265  3061.95  3.40E-1  2.97E+0  1.47E+1   446
    3270  3057.27  3.46E-1  2.59E+0  1.27E+1   481
    3275  3052.60  3.92E-1  2.05E+0  9.85E+0   491
    3280  3047.95  4.45E-1  1.87E+0  8.50E+0   454
    3285  3043.31  4.32E-1  1.77E+0  8.17E+0   447
    3290  3038.68  5.60E-1  1.69E+0  7.10E+0   541
    3295  3034.07  8.16E-1  1.58E+0  5.83E+0   567
    3300  3029.48  7.15E-1  1.49E+0  5.78E+0   516
    3305  3024.89  8.97E-1  1.47E+0  5.07E+0   602
    3310  3020.32  9.67E-1  1.43E+0  4.66E+0   610
    3315  3015.77  1.11E+0  1.42E+0  4.18E+0   681
    3320  3011.23  1.45E+0  1.42E+0  3.63E+0   713
    3325  3006.70  1.33E+0  1.36E+0  3.68E+0   651
    3330  3002.18  1.54E+0  1.34E+0  3.19E+0   684
    3335  2997.68  2.12E+0  1.56E+0  2.92E+0   562
    3340  2993.20  2.19E+0  1.60E+0  3.00E+0   509
    3345  2988.72  1.75E+0  1.36E+0  2.83E+0   580
    3350  2984.26  1.60E+0  1.20E+0  2.43E+0   707
    3355  2979.81  1.69E+0  1.16E+0  2.14E+0   769
    3360  2975.38  1.72E+0  1.13E+0  1.96E+0   789
    3365  2970.96  1.67E+0  1.13E+0  1.98E+0   743
    3370  2966.55  1.81E+0  1.22E+0  1.98E+0   688
    3375  2962.16  1.69E+0  1.20E+0  1.79E+0   674
    3380  2957.77  1.42E+0  1.13E+0  1.77E+0   588
    3385  2953.40  1.19E+0  1.02E+0  1.65E+0   638
    3390  2949.05  9.90E-1  9.55E-1  1.57E+0   659
    3395  2944.70  8.75E-1  9.07E-1  1.51E+0   669
    3400  2940.37  7.70E-1  8.48E-1  1.49E+0   665
    3405  2936.06  6.87E-1  7.80E-1  1.42E+0   728
    3410  2931.75  6.68E-1  7.81E-1  1.38E+0   708
    3415  2927.46  6.39E-1  7.50E-1  1.28E+0   784
    3420  2923.18  7.02E-1  7.95E-1  1.25E+0   859
    3425  2918.91  7.27E-1  7.96E-1  1.21E+0   890
    3430  2914.66  8.18E-1  8.59E-1  1.20E+0   951
    3435  2910.41  9.22E-1  9.67E-1  1.27E+0   963
    3440  2906.18  9.45E-1  9.33E-1  1.16E+0  1020
    3445  2901.97  1.11E+0  1.07E+0  1.19E+0   996
    3450  2897.76  1.06E+0  9.77E-1  1.08E+0  1200
    3455  2893.57  1.27E+0  1.12E+0  1.14E+0  1197
    3460  2889.39  1.05E+0  9.24E-1  1.00E+0  1455
    3465  2885.22  1.05E+0  8.84E-1  9.52E-1  1303
    3470  2881.06  9.86E-1  8.40E-1  9.36E-1  1450
    3475  2876.91  6.65E-1  6.27E-1  8.48E-1  1755
    3480  2872.78  8.79E-1  8.02E-1  9.64E-1  1338
    3485  2868.66  5.26E-1  5.94E-1  8.48E-1  1035
    3490  2864.55  6.39E-1  8.73E-1  1.34E+0   475
    3495  2860.45  2.99E+0  3.18E+0  3.70E+0   467
    3500  2856.36  3.03E+0  3.12E+0  3.40E+0  1277
    3505  2852.29  3.27E-1  3.59E-1  6.39E-1  1703
    3510  2848.23  4.74E-1  4.69E-1  6.32E-1  2196
    3515  2844.17  3.93E-1  4.20E-1  6.36E-1  2581
    3520  2840.13  4.91E-1  5.43E-1  9.50E-1  1951
    3525  2836.11  1.32E+0  1.07E+0  1.28E+0  1371
    3530  2832.09  1.36E+0  1.15E+0  1.28E+0  1547
    3535  2828.08  9.64E-1  9.10E-1  1.06E+0  1776
    3540  2824.09  1.34E+0  1.20E+0  1.19E+0  1225
    3545  2820.11  1.43E+0  1.46E+0  1.78E+0   770
    3550  2816.13  1.05E+0  1.29E+0  1.83E+0   653
    3555  2812.17  8.18E-1  1.18E+0  1.78E+0   611
    3560  2808.22  5.99E-1  9.55E-1  1.59E+0   583
    3565  2804.28  4.29E-1  6.96E-1  1.29E+0   481
    3570  2800.36  2.91E-1  5.47E-1  1.18E+0   474
    3575  2796.44  1.73E-1  5.29E-1  1.50E+0   440
    3580  2792.53  1.28E-1  4.99E-1  1.71E+0   442
    3585  2788.64  1.10E-1  3.34E-1  1.27E+0   547
    3590  2784.76  9.04E-2  2.61E-1  1.11E+0   471
    3595  2780.88  1.00E-1  2.19E-1  8.02E-1   673
    3600  2777.02  1.31E-1  3.12E-1  1.02E+0   978
    3605  2773.17  1.39E-1  4.49E-1  1.62E+0   703
    3610  2769.33  1.55E-1  6.41E-1  2.41E+0   996
    3615  2765.50  2.52E-1  6.67E-1  1.96E+0  1018
    3620  2761.68  2.26E-1  3.19E-1  7.53E-1   746
    3625  2757.87  1.18E-1  2.68E-1  1.03E+0   922
    3630  2754.07  1.94E-1  8.68E-1  3.14E+0   977
    3635  2750.28  2.52E-1  1.20E+0  3.86E+0   819
    3640  2746.50  1.78E-1  5.69E-1  1.94E+0  1181
    3645  2742.74  1.13E-1  2.19E-1  8.19E-1   525
    3650  2738.98  1.94E-1  5.85E-1  2.07E+0  1535
    3655  2735.23  3.54E-1  1.79E+0  5.47E+0   875
    3660  2731.50  4.88E-1  2.35E+0  6.55E+0   636
    3665  2727.77  3.30E-1  1.16E+0  3.38E+0   891
    3670  2724.05  2.37E-1  5.06E-1  1.53E+0   360
    3675  2720.35  3.32E-1  1.31E+0  4.15E+0   948
    3680  2716.65  2.37E-1  1.13E+0  4.07E+0  1132
    3685  2712.96  5.60E-1  1.77E+0  4.43E+0  1122
    3690  2709.29  5.54E-1  2.00E+0  5.06E+0   806
    3695  2705.62  2.63E-1  1.45E+0  5.25E+0   995
    3700  2701.97  3.18E-1  1.81E+0  6.26E+0  1027
    3705  2698.32  2.62E-1  1.04E+0  3.56E+0   592
    3710  2694.68  5.17E-1  1.90E+0  5.57E+0   670
    3715  2691.06  1.14E+0  4.18E+0  1.03E+1   863
    3720  2687.44  1.20E+0  5.26E+0  1.32E+1   658
    3725  2683.83  4.67E-1  3.20E+0  1.16E+1   435
    3730  2680.23  3.47E-1  2.21E+0  8.78E+0   500
    3735  2676.65  4.78E-1  2.33E+0  8.26E+0   502
    3740  2673.07  1.37E+0  5.70E+0  1.57E+1   569
    3745  2669.50  1.40E+0  5.52E+0  1.53E+1   770
    3750  2665.94  6.64E-1  3.97E+0  1.47E+1   770
    3755  2662.39  1.10E+0  6.22E+0  2.15E+1   423
    3760  2658.85  7.76E-1  5.51E+0  2.22E+1   488
    3765  2655.32  1.91E+0  1.13E+1  3.78E+1   512
    3770  2651.80  1.91E+0  1.20E+1  4.19E+1   430
    3775  2648.28  1.24E+0  1.07E+1  4.23E+1   464
    3780  2644.78  2.35E+0  1.48E+1  4.65E+1   380
    3785  2641.29  4.41E+0  2.07E+1  5.55E+1   437
    3790  2637.80  5.92E+0  3.17E+1  8.47E+1   454
    3795  2634.33  9.33E+0  5.29E+1  1.37E+2   559
    3800  2630.86  1.46E+1  7.34E+1  1.63E+2   544
    3805  2627.40  2.03E+1  8.74E+1  1.78E+2   426
    3810  2623.96  3.45E+1  1.23E+2  2.22E+2   396
    3815  2620.52  4.50E+1  1.33E+2  2.10E+2   495
    3820  2617.09  6.97E+1  1.72E+2  2.57E+2   517
    3825  2613.67  1.52E+2  2.94E+2  3.88E+2   480
    3830  2610.25  2.06E+2  3.30E+2  3.99E+2   438
    3835  2606.85  2.12E+2  3.16E+2  3.78E+2   352
    3840  2603.46  3.54E+2  4.37E+2  4.72E+2   322
    3845  2600.07  3.81E+2  4.39E+2  5.04E+2   314
    3850  2596.69  4.03E+2  4.89E+2  6.02E+2   327
    3855  2593.33  4.49E+2  6.70E+2  8.41E+2   284
    3860  2589.97  9.70E+2  1.33E+3  1.49E+3   272
    3865  2586.62  2.12E+3  1.55E+3  1.22E+3   312
    3870  2583.27  8.70E+2  5.16E+2  4.25E+2   452
    3875  2579.94  3.37E+2  2.56E+2  2.48E+2   322
    3880  2576.62  4.28E+2  3.64E+2  3.33E+2   253
    3885  2573.30  9.24E+2  7.35E+2  5.67E+2   260
    3890  2569.99  1.30E+3  9.86E+2  7.33E+2   325
    3895  2566.69  1.10E+3  9.22E+2  7.23E+2   365
    3900  2563.40  5.47E+2  8.10E+2  7.85E+2   361
    3905  2560.12  2.07E+2  5.89E+2  8.79E+2   275
    3910  2556.85  1.56E+2  3.80E+2  6.40E+2   250
    3915  2553.58  1.83E+2  2.55E+2  3.54E+2   252
    3920  2550.32  1.47E+2  1.68E+2  2.26E+2   215
    3925  2547.08  8.94E+1  1.03E+2  1.28E+2   192
    3930  2543.84  6.76E+1  7.83E+1  8.92E+1   240
    3935  2540.60  5.37E+1  6.93E+1  8.57E+1   313
    3940  2537.38  9.87E+1  1.03E+2  1.21E+2   323
    3945  2534.16  1.21E+2  1.02E+2  1.11E+2   308
    3950  2530.95  8.49E+1  7.38E+1  8.40E+1   386
    3955  2527.76  1.27E+2  1.11E+2  1.14E+2   369
    3960  2524.56  1.20E+2  1.15E+2  1.21E+2   279
    3965  2521.38  9.18E+1  9.57E+1  1.09E+2   295
    3970  2518.20  9.53E+1  1.01E+2  1.17E+2   322
    3975  2515.04  8.00E+1  8.96E+1  1.14E+2   285
    3980  2511.88  7.86E+1  8.48E+1  1.10E+2   249
    3985  2508.73  7.01E+1  8.44E+1  1.11E+2   250
    3990  2505.58  4.38E+1  6.47E+1  1.02E+2   260
    3995  2502.45  4.14E+1  6.02E+1  9.71E+1   235
    4000  2499.32  6.95E+1  7.90E+1  1.17E+2   231
    4005  2496.20  4.29E+1  6.26E+1  1.05E+2   231
    4010  2493.09  2.25E+1  5.72E+1  1.10E+2   184
    4015  2489.98  4.83E+1  8.41E+1  1.48E+2   202
    4020  2486.88  5.15E+1  8.45E+1  1.41E+2   201
    4025  2483.79  4.52E+1  7.47E+1  1.30E+2   196
    4030  2480.71  5.13E+1  7.62E+1  1.47E+2   192
    4035  2477.64  3.73E+1  7.36E+1  1.53E+2   162
    4040  2474.57  3.60E+1  6.87E+1  1.42E+2   167
    4045  2471.51  5.21E+1  8.54E+1  1.72E+2   177
    4050  2468.46  5.81E+1  9.37E+1  2.14E+2   182
    4055  2465.42  5.64E+1  1.04E+2  2.54E+2   155
    4060  2462.38  5.99E+1  1.39E+2  2.91E+2   151
    4065  2459.35  5.26E+1  1.44E+2  3.55E+2   146
    4070  2456.33  7.17E+1  1.90E+2  4.69E+2   129
    4075  2453.32  9.34E+1  2.47E+2  4.79E+2   161
    4080  2450.31  1.01E+2  2.85E+2  5.49E+2   185
    4085  2447.31  1.42E+2  3.53E+2  6.59E+2   181
    4090  2444.32  2.17E+2  4.25E+2  7.01E+2   183
    4095  2441.34  2.99E+2  4.63E+2  6.74E+2   182
    4100  2438.36  3.04E+2  4.99E+2  8.19E+2   161
    4105  2435.39  2.55E+2  5.51E+2  1.05E+3   112
    4110  2432.43  2.73E+2  4.72E+2  7.83E+2   139
    4115  2429.47  2.96E+2  5.24E+2  8.89E+2   150
    4120  2426.52  4.65E+2  9.64E+2  1.68E+3   118
    4125  2423.58  6.91E+2  1.07E+3  1.70E+3   117
    4130  2420.65  5.31E+2  7.83E+2  1.27E+3   129
    4135  2417.72  3.63E+2  7.26E+2  1.37E+3   164
    4140  2414.80  2.92E+2  5.46E+2  1.06E+3   197
    4145  2411.89  3.23E+2  4.35E+2  7.51E+2   194
    4150  2408.98  3.15E+2  6.59E+2  1.23E+3   172
    4155  2406.08  3.85E+2  1.13E+3  2.02E+3   170
    4160  2403.19  3.51E+2  1.03E+3  1.75E+3   153
    4165  2400.31  3.46E+2  1.12E+3  1.93E+3   137
    4170  2397.43  4.84E+2  1.57E+3  2.69E+3   161
    4175  2394.56  7.42E+2  1.93E+3  3.03E+3   184
    4180  2391.69  1.53E+3  2.76E+3  3.54E+3   185
    4185  2388.83  1.73E+3  2.27E+3  2.96E+3   168
    4190  2385.98  1.33E+3  1.78E+3  2.54E+3   145
    4195  2383.14  1.70E+3  1.99E+3  2.71E+3   142
    4200  2380.30  1.84E+3  1.86E+3  2.63E+3   148
    4205  2377.47  1.69E+3  2.10E+3  3.14E+3   115
    4210  2374.65  1.98E+3  3.36E+3  5.13E+3   106
    4215  2371.83  4.86E+3  8.58E+3  1.21E+4   113
    4220  2369.02  5.42E+3  7.17E+3  8.58E+3   116
    4225  2366.22  2.65E+3  3.10E+3  3.72E+3   167
    4230  2363.42  1.94E+3  1.87E+3  2.45E+3   160
    4235  2360.63  1.83E+3  1.56E+3  2.11E+3   138
    4240  2357.85  2.80E+3  2.49E+3  2.81E+3   118
    4245  2355.07  4.73E+3  5.38E+3  5.56E+3   140
    4250  2352.30  3.17E+3  4.46E+3  5.37E+3   126
    4255  2349.54  3.00E+3  4.69E+3  5.73E+3   116
    4260  2346.78  3.25E+3  6.00E+3  7.21E+3   120
    4265  2344.03  1.51E+3  3.59E+3  4.97E+3   120
    4270  2341.28  1.90E+3  4.17E+3  5.45E+3   124
    4275  2338.54  2.71E+3  4.73E+3  6.27E+3   129
    4280  2335.81  2.35E+3  3.64E+3  5.06E+3   134
    4285  2333.09  3.58E+3  3.77E+3  4.50E+3   144
    4290  2330.37  3.30E+3  2.72E+3  3.35E+3   152
    4295  2327.65  2.51E+3  1.93E+3  2.49E+3   114
    4300  2324.95  1.76E+3  1.79E+3  2.77E+3   112
    4305  2322.25  1.96E+3  2.57E+3  4.34E+3   123
    4310  2319.55  3.86E+3  5.90E+3  8.32E+3    96
    4315  2316.86  4.70E+3  6.00E+3  6.90E+3    80
    4320  2314.18  1.58E+3  1.06E+3  1.04E+3   131
    4325  2311.51  1.21E+3  6.90E+2  6.34E+2   185
    4330  2308.84  4.05E+3  2.01E+3  1.45E+3   190
    4335  2306.18  2.22E+4  1.25E+4  7.35E+3   309
    4340  2303.52  9.85E+3  8.48E+3  6.56E+3   160
    4345  2300.87  8.47E+3  7.94E+3  6.64E+3   129
    4350  2298.22  4.04E+3  5.00E+3  5.33E+3   108
    4355  2295.58  2.67E+3  4.19E+3  5.38E+3    88
    4360  2292.95  2.91E+3  3.67E+3  4.69E+3    85
    4365  2290.33  2.77E+3  3.05E+3  4.08E+3    95
    4370  2287.71  2.16E+3  2.40E+3  3.42E+3   109
    4375  2285.09  2.51E+3  2.53E+3  3.20E+3   126
    4380  2282.48  4.15E+3  3.89E+3  4.15E+3   149
    4385  2279.88  1.86E+3  1.95E+3  2.48E+3   146
    4390  2277.28  2.07E+3  2.20E+3  2.61E+3   139
    4395  2274.69  2.20E+3  2.62E+3  2.91E+3   152
    4400  2272.11  1.27E+3  1.82E+3  2.24E+3   145
    4405  2269.53  1.67E+3  2.61E+3  3.17E+3   129
    4410  2266.96  8.50E+2  1.72E+3  2.53E+3   123
    4415  2264.39  6.54E+2  1.49E+3  2.30E+3   127
    4420  2261.83  1.42E+3  3.09E+3  4.33E+3   130
    4425  2259.27  6.23E+2  1.72E+3  3.00E+3   124
    4430  2256.72  3.61E+2  1.19E+3  2.33E+3   111
    4435  2254.18  6.16E+2  1.90E+3  3.34E+3   102
    4440  2251.64  5.15E+2  1.68E+3  2.90E+3    94
    4445  2249.10  3.09E+2  1.26E+3  2.33E+3    90
    4450  2246.58  2.95E+2  1.19E+3  2.22E+3    95
    4455  2244.06  3.26E+2  1.32E+3  2.42E+3   123
    4460  2241.54  2.81E+2  1.30E+3  2.40E+3   132
    4465  2239.03  3.12E+2  1.19E+3  2.07E+3   126
    4470  2236.53  4.36E+2  1.22E+3  1.89E+3   140
    4475  2234.03  4.43E+2  1.27E+3  2.04E+3   172
    4480  2231.53  4.60E+2  1.13E+3  1.84E+3   195
    4485  2229.05  3.82E+2  8.33E+2  1.49E+3   195
    4490  2226.56  3.88E+2  7.46E+2  1.31E+3   184
    4495  2224.09  4.24E+2  6.15E+2  9.90E+2   208
    4500  2221.62  5.04E+2  6.42E+2  1.03E+3   265
    4505  2219.15  3.82E+2  5.19E+2  9.17E+2   215
    4510  2216.69  3.45E+2  4.19E+2  6.90E+2   217
    4515  2214.24  2.23E+2  2.61E+2  5.41E+2   233
    4520  2211.79  1.42E+2  1.96E+2  4.52E+2   189
    4525  2209.34  1.14E+2  1.58E+2  3.54E+2   138
    4530  2206.90  1.16E+2  1.78E+2  4.72E+2   108
    4535  2204.47  5.42E+2  7.81E+2  1.41E+3   102
    4540  2202.04  1.86E+3  2.39E+3  2.82E+3    78
    4545  2199.62  1.23E+3  2.62E+3  3.74E+3    98
    4550  2197.20  2.39E+2  4.37E+2  1.05E+3   116
    4555  2194.79  1.56E+2  1.70E+2  3.62E+2   173
    4560  2192.38  1.09E+2  8.96E+1  1.71E+2   266
    4565  2189.98  1.57E+2  1.06E+2  1.56E+2   372
    4570  2187.59  2.10E+2  1.03E+2  1.27E+2   518
    4575  2185.20  2.12E+2  1.13E+2  1.37E+2   518
    4580  2182.81  4.01E+2  1.96E+2  1.77E+2   601
    4585  2180.43  4.00E+2  2.00E+2  1.65E+2   625
    4590  2178.05  6.12E+2  3.40E+2  2.56E+2   432
    4595  2175.68  4.41E+2  2.79E+2  2.14E+2   311
    4600  2173.32  4.77E+2  3.49E+2  2.72E+2   292
    4605  2170.96  3.38E+2  3.80E+2  3.37E+2   246
    4610  2168.61  1.91E+2  2.95E+2  3.11E+2   211
    4615  2166.26  1.76E+2  3.18E+2  3.67E+2   204
    4620  2163.91  9.81E+1  1.90E+2  2.49E+2   313
    4625  2161.57  1.24E+2  2.33E+2  3.05E+2   391
    4630  2159.24  9.95E+1  1.72E+2  2.49E+2   720
    4635  2156.91  4.61E+1  1.25E+2  2.02E+2   573
    4640  2154.58  6.14E+1  1.54E+2  2.40E+2   702
    4645  2152.26  2.66E+1  1.01E+2  1.91E+2   796
    4650  2149.95  2.89E+1  1.26E+2  2.33E+2   589
    4655  2147.64  1.87E+1  8.79E+1  1.88E+2   681
    4660  2145.34  5.39E+0  3.40E+1  8.72E+1   610
    4665  2143.04  7.85E+0  4.09E+1  1.01E+2   582
    4670  2140.74  6.30E+0  2.77E+1  7.47E+1   646
    4675  2138.45  2.35E+0  1.73E+1  5.55E+1   527
    4680  2136.17  2.25E+0  1.72E+1  5.60E+1   762
    4685  2133.89  5.96E-1  8.61E+0  3.96E+1   508
    4690  2131.61  7.16E-1  1.07E+1  5.07E+1   582
    4695  2129.34  3.63E-1  6.16E+0  3.39E+1   485
    4700  2127.08  2.37E-1  3.87E+0  2.29E+1   485
    4705  2124.82  2.06E-1  3.59E+0  2.17E+1   552
    4710  2122.56  1.50E-1  3.04E+0  1.98E+1   549
    4715  2120.31  1.31E-1  1.73E+0  1.09E+1   526
    4720  2118.07  8.98E-2  1.44E+0  1.04E+1   419
    4725  2115.82  6.05E-2  9.15E-1  7.16E+0   479
    4730  2113.59  9.16E-2  8.46E-1  5.52E+0   443
    4735  2111.36  9.14E-2  8.06E-1  5.31E+0   422
    4740  2109.13  7.31E-2  4.99E-1  3.51E+0   528
    4745  2106.91  8.95E-2  5.44E-1  3.39E+0   581
    4750  2104.69  1.02E-1  5.10E-1  2.86E+0   734
    4755  2102.48  9.05E-2  3.62E-1  2.08E+0   961
    4760  2100.27  1.00E-1  4.11E-1  2.17E+0   806
    4765  2098.06  8.95E-2  3.74E-1  2.01E+0   956
    4770  2095.86  7.43E-2  2.80E-1  1.61E+0  1408
    4775  2093.67  8.82E-2  2.77E-1  1.41E+0  1672
    4780  2091.48  8.32E-2  3.06E-1  1.58E+0  1271
    4785  2089.29  8.33E-2  2.83E-1  1.42E+0  1412
    4790  2087.11  8.79E-2  2.38E-1  1.15E+0  2118
    4795  2084.94  7.55E-2  2.50E-1  1.29E+0  1634
    4800  2082.76  7.72E-2  2.31E-1  1.16E+0  1828
    4805  2080.60  8.72E-2  1.99E-1  9.08E-1  2754
    4810  2078.43  6.43E-2  2.04E-1  1.12E+0  1738
    4815  2076.28  6.35E-2  1.99E-1  1.09E+0  1683
    4820  2074.12  8.49E-2  1.79E-1  7.85E-1  3028
    4825  2071.97  7.01E-2  1.67E-1  8.36E-1  2469
    4830  2069.83  6.64E-2  1.62E-1  8.27E-1  2231
    4835  2067.69  7.44E-2  1.51E-1  6.77E-1  3056
    4840  2065.55  6.43E-2  1.45E-1  7.28E-1  2576
    4845  2063.42  6.38E-2  1.45E-1  7.15E-1  2435
    4850  2061.29  6.52E-2  1.27E-1  5.67E-1  3429
    4855  2059.17  5.73E-2  1.24E-1  6.27E-1  2788
    4860  2057.05  5.90E-2  1.27E-1  6.21E-1  2636
    4865  2054.94  6.42E-2  1.30E-1  5.80E-1  2985
    4870  2052.83  6.50E-2  1.46E-1  6.72E-1  2287
    4875  2050.72  6.41E-2  1.25E-1  5.45E-1  3150
    4880  2048.62  6.89E-2  1.30E-1  5.30E-1  3329
    4885  2046.52  7.75E-2  1.66E-1  6.74E-1  2421
    4890  2044.43  8.45E-2  1.82E-1  6.91E-1  2151
    4895  2042.34  8.15E-2  1.60E-1  5.89E-1  2546
    4900  2040.26  7.86E-2  1.50E-1  5.59E-1  2553
    4905  2038.18  9.55E-2  1.85E-1  6.23E-1  2190
    4910  2036.10  1.21E-1  2.43E-1  7.33E-1  2017
    4915  2034.03  1.08E-1  2.16E-1  6.80E-1  2027
    4920  2031.97  8.00E-2  1.47E-1  5.12E-1  2557
    4925  2029.90  1.33E-1  2.95E-1  8.57E-1  1440
    4930  2027.84  1.53E-1  3.29E-1  8.83E-1  1575
    4935  2025.79  1.52E-1  2.71E-1  7.03E-1  2234
    4940  2023.74  1.71E-1  3.22E-1  7.74E-1  1285
    4945  2021.69  1.67E-1  3.55E-1  8.87E-1  1123
    4950  2019.65  1.80E-1  3.52E-1  8.80E-1  1773
    4955  2017.61  4.31E-1  8.15E-1  1.52E+0  1953
    4960  2015.58  4.22E-1  8.70E-1  1.65E+0  1638
    4965  2013.55  2.90E-1  6.14E-1  1.36E+0  1847
    4970  2011.52  2.74E-1  5.17E-1  1.12E+0  1936
    4975  2009.50  2.79E-1  4.07E-1  7.56E-1  1864
    4980  2007.48  5.21E-1  9.32E-1  1.57E+0  1496
    4985  2005.47  4.92E-1  9.97E-1  1.82E+0  1704
    4990  2003.46  2.69E-1  4.80E-1  1.03E+0  1824
    4995  2001.46  1.78E-1  2.80E-1  5.75E-1   469
    5000  1999.45  8.19E-1  1.35E+0  2.04E+0  1515
    5005  1997.46  1.34E+0  2.73E+0  3.88E+0  1242
    5010  1995.46  6.10E-1  1.34E+0  2.42E+0  2197
    5015  1993.47  1.84E-1  2.82E-1  5.65E-1   183
    5020  1991.49  7.30E-1  1.11E+0  1.76E+0  2006
    5025  1989.51  1.91E+0  3.18E+0  4.14E+0  1522
    5030  1987.53  1.14E+0  2.00E+0  2.93E+0  1455
    5035  1985.56  3.81E-1  5.60E-1  9.29E-1   221
    5040  1983.59  1.54E+0  2.05E+0  2.75E+0  1629
    5045  1981.62  3.06E+0  3.81E+0  4.31E+0   960
    5050  1979.66  1.35E+0  1.95E+0  2.63E+0   782
    5055  1977.70  1.25E+0  1.77E+0  2.44E+0   647
    5060  1975.75  2.11E+0  2.46E+0  2.96E+0   637
    5065  1973.79  2.27E+0  2.40E+0  2.75E+0   802
    5070  1971.85  1.43E+0  1.79E+0  2.39E+0   676
    5075  1969.91  2.46E+0  2.87E+0  3.53E+0   946
    5080  1967.97  2.66E+0  3.18E+0  3.92E+0   592
    5085  1966.03  4.14E+0  3.71E+0  4.45E+0   582
    5090  1964.10  7.95E+0  5.47E+0  5.26E+0   606
    5095  1962.17  3.30E+0  3.41E+0  3.76E+0   419
    5100  1960.25  3.38E+0  3.80E+0  4.25E+0   395
    5105  1958.33  3.37E+0  3.68E+0  4.04E+0   462
    5110  1956.41  3.65E+0  3.70E+0  3.98E+0   478
    5115  1954.50  7.33E+0  5.08E+0  4.84E+0   542
    5120  1952.59  3.54E+0  3.04E+0  3.69E+0   531
    5125  1950.69  2.38E+0  3.92E+0  5.67E+0   468
    5130  1948.79  7.72E+0  9.07E+0  9.93E+0   302
    5135  1946.89  1.37E+1  1.13E+1  9.77E+0   305
    5140  1944.99  1.19E+1  7.63E+0  6.61E+0   459
    5145  1943.10  1.28E+1  6.46E+0  5.63E+0   622
    5150  1941.22  9.64E+0  5.47E+0  5.07E+0   677
    5155  1939.33  4.26E+0  4.49E+0  4.86E+0   476
    5160  1937.46  5.56E+0  5.20E+0  5.66E+0   305
    5165  1935.58  6.99E+0  4.80E+0  4.96E+0   279
    5170  1933.71  6.59E+0  5.76E+0  6.14E+0   229
    5175  1931.84  8.13E+0  8.13E+0  8.79E+0   176
    5180  1929.98  6.84E+0  6.65E+0  7.45E+0   319
    5185  1928.11  1.13E+1  6.69E+0  7.04E+0   426
    5190  1926.26  2.35E+1  1.24E+1  1.07E+1   356
    5195  1924.40  2.53E+1  1.41E+1  1.22E+1   307
    5200  1922.55  1.94E+1  1.51E+1  1.46E+1   269
    5205  1920.71  1.87E+1  1.93E+1  2.00E+1   210
    5210  1918.86  1.33E+1  1.36E+1  1.48E+1   379
    5215  1917.02  7.70E+0  7.40E+0  8.57E+0   353
    5220  1915.19  1.08E+1  9.61E+0  1.04E+1   354
    5225  1913.35  1.35E+1  1.18E+1  1.25E+1   287
    5230  1911.52  1.25E+1  1.32E+1  1.46E+1   307
    5235  1909.70  6.97E+0  9.63E+0  1.22E+1   340
    5240  1907.88  7.30E+0  9.03E+0  1.08E+1   225
    5245  1906.06  5.02E+0  6.68E+0  8.68E+0   223
    5250  1904.24  3.39E+0  5.53E+0  8.11E+0   201
    5255  1902.43  4.61E+0  7.13E+0  9.84E+0   181
    5260  1900.62  2.83E+0  4.92E+0  7.83E+0   211
    5265  1898.82  1.87E+0  3.46E+0  6.25E+0   160
    5270  1897.02  2.83E+0  5.16E+0  8.44E+0   190
    5275  1895.22  2.13E+0  4.59E+0  7.99E+0   228
    5280  1893.42  1.33E+0  2.98E+0  5.79E+0   179
    5285  1891.63  1.87E+0  4.26E+0  7.74E+0   145
    5290  1889.84  1.49E+0  4.20E+0  8.68E+0   113
    5295  1888.06  1.15E+0  3.14E+0  6.84E+0   112
    5300  1886.28  1.48E+0  3.60E+0  6.90E+0   105
    5305  1884.50  1.39E+0  3.76E+0  7.93E+0   102
    5310  1882.73  1.59E+0  4.54E+0  9.72E+0   105
    5315  1880.95  1.96E+0  5.18E+0  1.04E+1    94
    5320  1879.19  1.84E+0  4.54E+0  8.96E+0   107
    5325  1877.42  1.68E+0  4.59E+0  9.37E+0   124
    5330  1875.66  2.26E+0  6.12E+0  1.22E+1   144
    5335  1873.90  2.18E+0  6.57E+0  1.41E+1   144
    5340  1872.15  2.26E+0  6.99E+0  1.54E+1   147
    5345  1870.40  4.49E+0  9.28E+0  1.63E+1   124
    5350  1868.65  4.32E+0  9.19E+0  1.62E+1   132
    5355  1866.90  5.15E+0  1.16E+1  2.05E+1   147
    5360  1865.16  9.55E+0  1.89E+1  3.04E+1   131
    5365  1863.42  9.70E+0  1.78E+1  2.81E+1   188
    5370  1861.69  1.31E+1  1.75E+1  2.40E+1   216
    5375  1859.96  2.55E+1  2.67E+1  3.13E+1   198
    5380  1858.23  3.47E+1  3.34E+1  4.05E+1   189
    5385  1856.50  2.86E+1  2.80E+1  3.80E+1   164
    5390  1854.78  1.88E+1  2.22E+1  3.18E+1   148
    5395  1853.06  3.20E+1  3.05E+1  3.81E+1   151
    5400  1851.35  4.93E+1  4.30E+1  4.91E+1   145
    5405  1849.63  3.84E+1  4.23E+1  5.45E+1   112
    5410  1847.92  4.04E+1  3.92E+1  5.14E+1    96
    5415  1846.22  5.15E+1  3.98E+1  4.72E+1   128
    5420  1844.51  4.03E+1  3.58E+1  4.51E+1   176
    5425  1842.81  5.48E+1  4.96E+1  6.29E+1   173
    5430  1841.12  6.80E+1  5.99E+1  7.04E+1   155
    5435  1839.42  4.68E+1  5.11E+1  6.74E+1   132
    5440  1837.73  4.01E+1  5.47E+1  7.99E+1    97
    5445  1836.05  3.66E+1  6.02E+1  9.02E+1   116
    5450  1834.36  2.95E+1  5.96E+1  9.95E+1   131
    5455  1832.68  2.08E+1  4.76E+1  8.45E+1   125
    5460  1831.00  1.61E+1  4.26E+1  7.95E+1   134
    5465  1829.33  1.65E+1  4.16E+1  7.36E+1   183
    5470  1827.65  2.05E+1  6.03E+1  1.03E+2   197
    5475  1825.99  1.96E+1  6.97E+1  1.26E+2   153
    5480  1824.32  1.42E+1  4.62E+1  8.24E+1   155
    5485  1822.66  1.88E+1  6.58E+1  1.13E+2   189
    5490  1821.00  3.52E+1  1.02E+2  1.53E+2   222
    5495  1819.34  4.60E+1  9.80E+1  1.31E+2   233
    5500  1817.69  3.10E+1  8.49E+1  1.28E+2   231
    5505  1816.03  2.39E+1  6.14E+1  9.43E+1   174
    5510  1814.39  6.21E+1  1.15E+2  1.47E+2   181
    5515  1812.74  9.45E+1  1.54E+2  1.74E+2   230
    5520  1811.10  8.89E+1  1.28E+2  1.45E+2   238
    5525  1809.46  6.76E+1  1.08E+2  1.30E+2   265
    5530  1807.82  8.28E+1  1.14E+2  1.28E+2   258
    5535  1806.19  1.52E+2  1.69E+2  1.70E+2   219
    5540  1804.56  1.02E+2  1.22E+2  1.35E+2   193
    5545  1802.93  1.06E+2  1.30E+2  1.54E+2   191
    5550  1801.31  8.26E+1  1.05E+2  1.33E+2   142
    5555  1799.69  9.32E+1  1.12E+2  1.32E+2   127
    5560  1798.07  1.39E+2  1.55E+2  1.77E+2   117
    5565  1796.45  1.16E+2  1.47E+2  1.94E+2   111
    5570  1794.84  1.21E+2  1.94E+2  2.77E+2   113
    5575  1793.23  1.65E+2  3.07E+2  4.13E+2    95
    5580  1791.63  3.96E+2  6.01E+2  6.45E+2   113
    5585  1790.02  6.99E+2  6.81E+2  6.11E+2   145
    5590  1788.42  2.82E+2  2.91E+2  3.03E+2   142
    5595  1786.82  1.67E+2  2.01E+2  2.26E+2   107
    5600  1785.23  2.55E+2  2.84E+2  2.80E+2    96
    5605  1783.63  3.48E+2  3.04E+2  2.47E+2   113
    5610  1782.04  2.62E+2  1.82E+2  1.42E+2   150
    5615  1780.46  2.28E+2  1.49E+2  1.17E+2   176
    5620  1778.87  3.94E+2  2.38E+2  1.67E+2   229
    5625  1777.29  4.74E+2  3.19E+2  2.25E+2   207
    5630  1775.71  6.01E+2  4.82E+2  3.69E+2   144
    5635  1774.14  4.03E+2  4.74E+2  4.61E+2    91
    5640  1772.57  2.52E+2  3.06E+2  3.30E+2    88
    5645  1771.00  3.06E+2  3.09E+2  3.06E+2   124
    5650  1769.43  2.47E+2  2.51E+2  2.39E+2   144
    5655  1767.86  2.10E+2  2.22E+2  2.22E+2   151
    5660  1766.30  2.02E+2  2.38E+2  2.65E+2   140
    5665  1764.74  1.55E+2  2.10E+2  2.46E+2   136
    5670  1763.19  1.13E+2  1.69E+2  2.25E+2   118
    5675  1761.63  7.59E+1  1.24E+2  1.95E+2    97
    5680  1760.08  8.52E+1  1.17E+2  1.72E+2    89
    5685  1758.53  9.20E+1  1.18E+2  1.76E+2    83
    5690  1756.99  5.97E+1  9.28E+1  1.54E+2    74
    5695  1755.45  9.68E+1  1.21E+2  1.73E+2    85
    5700  1753.91  1.25E+2  1.55E+2  2.09E+2   104
    5705  1752.37  7.41E+1  1.11E+2  1.64E+2    97
    5710  1750.84  5.81E+1  1.05E+2  1.66E+2    99
    5715  1749.30  8.29E+1  1.39E+2  2.06E+2   103
    5720  1747.77  9.09E+1  1.50E+2  2.09E+2    95
    5725  1746.25  5.68E+1  1.40E+2  2.24E+2   139
    5730  1744.72  6.56E+1  1.67E+2  2.60E+2   139
    5735  1743.20  7.63E+1  1.75E+2  2.54E+2   115
    5740  1741.68  6.31E+1  1.50E+2  2.33E+2   133
    5745  1740.17  8.79E+1  2.03E+2  3.03E+2   120
    5750  1738.66  1.24E+2  2.81E+2  3.93E+2   115
    5755  1737.15  9.37E+1  2.13E+2  3.29E+2   108
    5760  1735.64  1.15E+2  2.43E+2  3.71E+2   101
    5765  1734.13  1.52E+2  3.14E+2  4.43E+2    91
    5770  1732.63  1.49E+2  3.09E+2  4.39E+2    86
    5775  1731.13  2.30E+2  4.44E+2  5.83E+2    90
    5780  1729.63  2.36E+2  4.50E+2  5.61E+2    83
    5785  1728.14  3.31E+2  5.12E+2  5.51E+2   102
    5790  1726.64  5.84E+2  7.37E+2  6.90E+2   116
    5795  1725.15  6.42E+2  7.41E+2  6.47E+2   120
    5800  1723.67  8.95E+2  8.21E+2  6.37E+2   141
    5805  1722.18  1.11E+3  8.15E+2  5.79E+2   182
    5810  1720.70  9.57E+2  6.12E+2  4.16E+2   201
    5815  1719.22  5.88E+2  3.78E+2  2.79E+2   190
    5820  1717.74  3.95E+2  2.72E+2  2.22E+2   192
    5825  1716.27  3.06E+2  2.13E+2  1.93E+2   180
    5830  1714.80  2.73E+2  2.13E+2  2.14E+2   121
    5835  1713.33  4.13E+2  3.47E+2  3.37E+2    97
    5840  1711.86  4.79E+2  4.14E+2  4.21E+2   103
    5845  1710.40  6.76E+2  5.30E+2  4.77E+2   134
    5850  1708.94  1.28E+3  8.57E+2  6.23E+2   153
    5855  1707.48  1.03E+3  9.36E+2  8.21E+2   112
    5860  1706.02  8.61E+2  9.78E+2  9.21E+2    91
    5865  1704.56  5.31E+2  6.95E+2  7.26E+2    82
    5870  1703.11  3.49E+2  5.75E+2  6.89E+2    75
    5875  1701.66  2.70E+2  5.37E+2  7.30E+2    76
    5880  1700.22  1.96E+2  3.95E+2  5.81E+2    75
    5885  1698.77  1.80E+2  3.05E+2  4.31E+2    81
    5890  1697.33  1.71E+2  2.80E+2  4.23E+2    89
    5895  1695.89  1.52E+2  2.18E+2  3.22E+2   103
    5900  1694.45  1.88E+2  2.48E+2  3.31E+2   131
    5905  1693.02  2.07E+2  3.12E+2  4.03E+2   138
    5910  1691.59  1.61E+2  2.54E+2  3.38E+2   142
    5915  1690.16  1.24E+2  2.30E+2  3.08E+2   199
    5920  1688.73  9.26E+1  1.86E+2  2.54E+2   180
    5925  1687.30  1.05E+2  2.31E+2  3.11E+2   159
    5930  1685.88  9.19E+1  2.10E+2  2.87E+2   136
    5935  1684.46  1.09E+2  2.20E+2  2.91E+2   175
    5940  1683.04  8.38E+1  1.75E+2  2.44E+2   218
    5945  1681.63  9.01E+1  1.72E+2  2.41E+2   171
    5950  1680.21  1.18E+2  1.84E+2  2.37E+2   225
    5955  1678.80  7.83E+1  1.14E+2  1.44E+2   223
    5960  1677.39  1.45E+2  1.77E+2  2.04E+2   231
    5965  1675.99  1.29E+2  1.57E+2  1.93E+2   182
    5970  1674.58  1.45E+2  1.65E+2  1.93E+2   190
    5975  1673.18  1.42E+2  1.84E+2  2.37E+2   171
    5980  1671.78  1.11E+2  1.54E+2  2.33E+2   125
    5985  1670.39  1.42E+2  1.80E+2  3.06E+2   104
    5990  1668.99  1.09E+2  1.83E+2  3.99E+2    90
    5995  1667.60  1.36E+2  3.13E+2  6.79E+2   127
    6000  1666.21  6.64E+2  1.47E+3  2.07E+3   191
    6005  1664.82  1.20E+3  8.77E+2  7.08E+2   325
    6010  1663.44  3.27E+2  2.22E+2  1.81E+2   331
    6015  1662.06  3.34E+2  2.06E+2  1.68E+2   310
    6020  1660.68  2.89E+2  1.64E+2  1.44E+2   394
    6025  1659.30  3.35E+2  1.86E+2  1.64E+2   366
    6030  1657.92  2.62E+2  1.74E+2  2.04E+2   264
    6035  1656.55  2.54E+2  2.22E+2  3.11E+2   215
    6040  1655.18  4.25E+2  4.05E+2  4.10E+2   191
    6045  1653.81  7.61E+2  4.91E+2  3.59E+2   379
    6050  1652.44  7.45E+2  3.90E+2  2.72E+2   618
    6055  1651.08  7.01E+2  4.33E+2  3.21E+2   425
    6060  1649.71  6.38E+2  5.79E+2  4.80E+2   155
    6065  1648.35  4.88E+2  5.13E+2  4.77E+2   119
    6070  1647.00  2.91E+2  3.39E+2  3.55E+2   153
    6075  1645.64  2.13E+2  2.90E+2  3.16E+2   238
    6080  1644.29  1.99E+2  2.67E+2  2.92E+2   358
    6085  1642.94  1.67E+2  2.35E+2  2.70E+2   384
    6090  1641.59  1.63E+2  2.25E+2  2.66E+2   470
    6095  1640.24  1.89E+2  2.27E+2  2.59E+2   502
    6100  1638.90  1.81E+2  2.65E+2  3.21E+2   415
    6105  1637.55  1.77E+2  2.65E+2  3.29E+2   431
    6110  1636.21  2.56E+2  3.60E+2  4.13E+2   448
    6115  1634.88  1.36E+2  2.35E+2  3.02E+2   364
    6120  1633.54  1.38E+2  2.68E+2  3.78E+2   273
    6125  1632.21  1.28E+2  2.45E+2  3.42E+2   255
    6130  1630.88  8.81E+1  1.78E+2  2.61E+2   345
    6135  1629.55  6.06E+1  1.31E+2  2.15E+2   334
    6140  1628.22  3.92E+1  1.14E+2  2.04E+2   284
    6145  1626.89  3.67E+1  1.26E+2  2.45E+2   310
    6150  1625.57  2.86E+1  8.47E+1  1.70E+2   276
    6155  1624.25  2.38E+1  7.15E+1  1.63E+2   238
    6160  1622.93  1.65E+1  5.78E+1  1.41E+2   245
    6165  1621.62  9.01E+0  4.43E+1  1.21E+2   227
    6170  1620.30  7.68E+0  3.55E+1  1.00E+2   267
    6175  1618.99  5.86E+0  2.75E+1  8.33E+1   230
    6180  1617.68  4.73E+0  2.46E+1  8.06E+1   252
    6185  1616.37  2.54E+0  1.51E+1  5.25E+1   341
    6190  1615.07  2.00E+0  1.32E+1  4.44E+1   249
    6195  1613.76  1.33E+0  1.01E+1  3.63E+1   253
    6200  1612.46  7.20E-1  6.00E+0  2.39E+1   269
    6205  1611.16  6.95E-1  5.83E+0  2.29E+1   320
    6210  1609.87  3.98E-1  3.68E+0  1.58E+1   284
    6215  1608.57  3.28E-1  3.11E+0  1.39E+1   294
    6220  1607.28  2.71E-1  2.75E+0  1.27E+1   349
    6225  1605.99  2.00E-1  1.56E+0  7.02E+0   279
    6230  1604.70  1.38E-1  1.42E+0  7.26E+0   284
    6235  1603.41  1.34E-1  1.26E+0  6.16E+0   371
    6240  1602.13  1.18E-1  7.29E-1  3.32E+0   294
    6245  1600.84  6.82E-2  6.42E-1  3.66E+0   352
    6250  1599.56  6.22E-2  5.96E-1  3.30E+0   404
    6255  1598.28  7.97E-2  5.27E-1  2.58E+0   361
    6260  1597.01  6.07E-2  4.31E-1  2.32E+0   444
    6265  1595.73  4.84E-2  3.25E-1  1.83E+0   529
    6270  1594.46  5.92E-2  2.98E-1  1.53E+0   631
    6275  1593.19  6.33E-2  2.52E-1  1.23E+0   941
    6280  1591.92  6.12E-2  2.25E-1  1.07E+0  1065
    6285  1590.66  5.89E-2  2.16E-1  1.04E+0  1046
    6290  1589.39  6.86E-2  1.97E-1  8.52E-1  1363
    6295  1588.13  7.86E-2  2.00E-1  7.69E-1  1418
    6300  1586.87  7.46E-2  2.03E-1  8.03E-1  1186
    6305  1585.61  6.99E-2  1.74E-1  6.84E-1  1451
    6310  1584.35  7.32E-2  1.59E-1  5.73E-1  1733
    6315  1583.10  8.28E-2  1.79E-1  6.14E-1  1377
    6320  1581.85  8.81E-2  1.76E-1  5.64E-1  1364
    6325  1580.60  8.60E-2  1.60E-1  4.92E-1  1535
    6330  1579.35  8.23E-2  1.56E-1  4.93E-1  1431
    6335  1578.10  8.25E-2  1.59E-1  5.04E-1  1224
    6340  1576.86  8.76E-2  1.62E-1  4.84E-1  1081
    6345  1575.61  9.21E-2  1.61E-1  4.61E-1  1024
    6350  1574.37  8.94E-2  1.52E-1  4.27E-1  1053
    6355  1573.13  1.01E-1  1.60E-1  4.11E-1   933
    6360  1571.90  1.27E-1  1.86E-1  4.16E-1   660
    6365  1570.66  1.55E-1  2.15E-1  4.28E-1   463
    6370  1569.43  2.13E-1  2.77E-1  4.74E-1   269
    6375  1568.20  2.26E-1  2.84E-1  4.63E-1   260
    6380  1566.97  2.26E-1  2.78E-1  4.43E-1   317
    6385  1565.74  2.47E-1  2.88E-1  4.29E-1   355
    6390  1564.52  3.14E-1  3.36E-1  4.44E-1   386
    6395  1563.29  4.70E-1  4.85E-1  5.61E-1   252
    6400  1562.07  4.08E-1  4.51E-1  5.60E-1   216
    6405  1560.85  2.82E-1  3.40E-1  4.89E-1   207
    6410  1559.64  2.72E-1  3.25E-1  4.67E-1   196
    6415  1558.42  2.01E-1  2.43E-1  3.82E-1   362
    6420  1557.21  1.88E-1  2.20E-1  3.38E-1   526
    6425  1556.00  2.90E-1  3.02E-1  3.76E-1   284
    6430  1554.79  2.98E-1  3.28E-1  4.25E-1   218
    6435  1553.58  2.27E-1  2.88E-1  4.44E-1   229
    6440  1552.37  1.78E-1  2.35E-1  4.03E-1   335
    6445  1551.17  1.63E-1  2.03E-1  3.34E-1   483
    6450  1549.96  1.39E-1  1.71E-1  2.88E-1   684
    6455  1548.76  1.46E-1  1.68E-1  2.62E-1   744
    6460  1547.56  2.22E-1  2.46E-1  3.44E-1   335
    6465  1546.37  2.27E-1  2.75E-1  4.02E-1   256
    6470  1545.17  2.45E-1  2.84E-1  3.84E-1   253
    6475  1543.98  2.94E-1  3.37E-1  4.34E-1   178
    6480  1542.79  2.60E-1  3.25E-1  4.66E-1   180
    6485  1541.60  2.01E-1  2.61E-1  4.21E-1   268
    6490  1540.41  2.50E-1  3.19E-1  4.74E-1   181
    6495  1539.23  2.80E-1  3.76E-1  5.45E-1   131
    6500  1538.04  2.30E-1  3.10E-1  4.79E-1   190
    6505  1536.86  2.52E-1  3.46E-1  5.34E-1   150
    6510  1535.68  2.76E-1  3.80E-1  5.78E-1   125
    6515  1534.50  2.47E-1  3.44E-1  5.53E-1   148
    6520  1533.32  2.11E-1  3.12E-1  5.42E-1   175
    6525  1532.15  1.90E-1  2.81E-1  5.00E-1   217
    6530  1530.98  2.49E-1  3.74E-1  6.19E-1   123
    6535  1529.80  4.27E-1  5.76E-1  8.14E-1    95
    6540  1528.63  4.62E-1  5.53E-1  7.32E-1   136
    6545  1527.47  3.30E-1  4.28E-1  6.45E-1    99
    6550  1526.30  3.24E-1  4.62E-1  7.30E-1    81
    6555  1525.14  3.83E-1  5.42E-1  8.04E-1    61
    6560  1523.97  4.30E-1  6.11E-1  9.19E-1    47
    6565  1522.81  4.47E-1  6.18E-1  9.09E-1    47
    6570  1521.65  4.16E-1  6.26E-1  9.82E-1    43
    6575  1520.50  4.29E-1  6.79E-1  1.10E+0    39
    6580  1519.34  5.34E-1  7.60E-1  1.12E+0    50
    6585  1518.19  5.91E-1  8.85E-1  1.31E+0    39
    6590  1517.04  6.06E-1  9.19E-1  1.34E+0    75
    6595  1515.89  5.23E-1  8.62E-1  1.34E+0    77
    6600  1514.74  5.86E-1  9.77E-1  1.53E+0    86
    6605  1513.59  9.14E-1  1.22E+0  1.64E+0   169
    6610  1512.45  1.16E+0  1.52E+0  1.94E+0   154
    6615  1511.30  9.26E-1  1.33E+0  1.82E+0   114
    6620  1510.16  7.55E-1  1.10E+0  1.53E+0    91
    6625  1509.02  9.67E-1  1.34E+0  1.80E+0   137
    6630  1507.88  9.40E-1  1.52E+0  2.22E+0   119
    6635  1506.75  1.09E+0  1.70E+0  2.36E+0    97
    6640  1505.61  1.48E+0  2.01E+0  2.55E+0   106
    6645  1504.48  1.33E+0  1.80E+0  2.36E+0   114
    6650  1503.35  1.21E+0  1.63E+0  2.14E+0   130
    6655  1502.22  1.07E+0  1.63E+0  2.28E+0   114
    6660  1501.09  8.41E-1  1.41E+0  2.14E+0    89
    6665  1499.97  6.56E-1  1.31E+0  2.22E+0    76
    6670  1498.84  7.21E-1  1.44E+0  2.39E+0    70
    6675  1497.72  1.23E+0  1.83E+0  2.50E+0    89
    6680  1496.60  1.44E+0  2.44E+0  3.34E+0   113
    6685  1495.48  1.31E+0  2.70E+0  4.19E+0   127
    6690  1494.36  1.10E+0  2.59E+0  4.33E+0   186
    6695  1493.24  7.73E-1  1.87E+0  3.42E+0   297
    6700  1492.13  8.25E-1  1.75E+0  3.01E+0   195
    6705  1491.02  1.31E+0  2.79E+0  4.32E+0   139
    6710  1489.91  1.86E+0  4.03E+0  5.94E+0   149
    6715  1488.80  1.64E+0  3.78E+0  5.97E+0   126
    6720  1487.69  1.69E+0  3.59E+0  5.61E+0   151
    6725  1486.58  3.45E+0  5.82E+0  7.61E+0   217
    6730  1485.48  3.79E+0  5.97E+0  7.61E+0   206
    6735  1484.38  3.99E+0  6.09E+0  7.84E+0   186
    6740  1483.27  8.00E+0  8.80E+0  1.00E+1   174
    6745  1482.17  7.19E+0  7.95E+0  9.48E+0   205
    6750  1481.08  6.18E+0  8.06E+0  9.86E+0   190
    6755  1479.98  9.37E+0  1.25E+1  1.44E+1   141
    6760  1478.89  2.67E+1  2.43E+1  2.35E+1   147
    6765  1477.79  2.99E+1  2.35E+1  2.08E+1   187
    6770  1476.70  1.14E+1  1.01E+1  1.04E+1   160
    6775  1475.61  1.26E+1  9.67E+0  9.64E+0   169
    6780  1474.52  2.15E+1  1.38E+1  1.27E+1   199
    6785  1473.44  2.82E+1  1.94E+1  1.73E+1   189
    6790  1472.35  2.32E+1  2.06E+1  1.93E+1   157
    6795  1471.27  2.11E+1  2.23E+1  2.18E+1   139
    6800  1470.19  1.38E+1  1.92E+1  2.28E+1   111
    6805  1469.11  5.25E+0  1.14E+1  1.78E+1    98
    6810  1468.03  6.25E+0  9.68E+0  1.34E+1    82
    6815  1466.95  8.52E+0  9.11E+0  1.06E+1    82
    6820  1465.88  8.94E+0  9.95E+0  1.14E+1    83
    6825  1464.80  7.49E+0  9.41E+0  1.14E+1    77
    6830  1463.73  7.41E+0  8.70E+0  1.04E+1    83
    6835  1462.66  9.12E+0  9.75E+0  1.09E+1    77
    6840  1461.59  8.18E+0  9.48E+0  1.14E+1    73
    6845  1460.52  1.45E+1  1.27E+1  1.43E+1   104
    6850  1459.46  1.55E+1  1.36E+1  1.49E+1    91
    6855  1458.39  1.32E+1  1.24E+1  1.38E+1    77
    6860  1457.33  1.74E+1  1.43E+1  1.50E+1    91
    6865  1456.27  1.54E+1  1.40E+1  1.59E+1    82
    6870  1455.21  1.47E+1  1.47E+1  1.83E+1    69
    6875  1454.15  1.75E+1  1.63E+1  1.90E+1    65
    6880  1453.09  2.09E+1  1.69E+1  1.79E+1    75
    6885  1452.04  2.55E+1  1.96E+1  1.97E+1    71
    6890  1450.98  2.08E+1  1.83E+1  2.13E+1    63
    6895  1449.93  1.60E+1  1.58E+1  2.02E+1    74
    6900  1448.88  2.30E+1  1.83E+1  2.03E+1    89
    6905  1447.83  2.36E+1  2.06E+1  2.34E+1    84
    6910  1446.78  2.02E+1  2.34E+1  3.00E+1    60
    6915  1445.74  1.81E+1  2.30E+1  3.21E+1    57
    6920  1444.69  1.95E+1  2.06E+1  2.81E+1    66
    6925  1443.65  2.04E+1  1.93E+1  2.62E+1    71
    6930  1442.61  1.78E+1  2.09E+1  2.97E+1    84
    6935  1441.57  2.52E+1  2.80E+1  3.71E+1    76
    6940  1440.53  2.09E+1  2.32E+1  3.24E+1    65
    6945  1439.49  1.60E+1  2.14E+1  3.17E+1    64
    6950  1438.46  2.43E+1  3.07E+1  4.10E+1    62
    6955  1437.42  2.76E+1  3.36E+1  4.55E+1    71
    6960  1436.39  2.39E+1  3.13E+1  4.70E+1    70
    6965  1435.36  1.67E+1  2.80E+1  4.38E+1    65
    6970  1434.33  1.98E+1  3.22E+1  4.74E+1    64
    6975  1433.30  2.86E+1  4.25E+1  5.96E+1    66
    6980  1432.27  3.09E+1  4.77E+1  6.47E+1    71
    6985  1431.25  3.26E+1  4.97E+1  6.45E+1    63
    6990  1430.22  2.93E+1  4.76E+1  6.34E+1    72
    6995  1429.20  4.29E+1  6.23E+1  7.92E+1    87
    7000  1428.18  5.18E+1  7.22E+1  8.54E+1    73
    7005  1427.16  3.50E+1  6.34E+1  8.32E+1    62
    7010  1426.14  3.75E+1  6.79E+1  8.92E+1    75
    7015  1425.13  6.03E+1  8.38E+1  9.47E+1    79
    7020  1424.11  6.84E+1  8.73E+1  9.58E+1    81
    7025  1423.10  5.07E+1  7.38E+1  8.61E+1    77
    7030  1422.09  5.56E+1  8.11E+1  9.43E+1    70
    7035  1421.08  6.05E+1  7.76E+1  8.83E+1    84
    7040  1420.07  6.25E+1  8.61E+1  9.80E+1    97
    7045  1419.06  7.88E+1  1.10E+2  1.21E+2    97
    7050  1418.05  9.15E+1  1.13E+2  1.20E+2    89
    7055  1417.05  9.61E+1  1.17E+2  1.25E+2    91
    7060  1416.04  1.16E+2  1.31E+2  1.33E+2    98
    7065  1415.04  1.26E+2  1.42E+2  1.44E+2    79
    7070  1414.04  1.00E+2  1.12E+2  1.19E+2    72
    7075  1413.04  1.34E+2  1.29E+2  1.26E+2    77
    7080  1412.04  1.93E+2  1.75E+2  1.61E+2    61
    7085  1411.05  1.80E+2  1.66E+2  1.66E+2    53
    7090  1410.05  1.80E+2  1.82E+2  1.95E+2    49
    7095  1409.06  2.68E+2  2.80E+2  2.78E+2    50
    7100  1408.07  2.89E+2  2.95E+2  2.79E+2    59
    7105  1407.07  2.25E+2  2.15E+2  2.03E+2    64
    7110  1406.09  2.54E+2  2.26E+2  2.04E+2    62
    7115  1405.10  2.33E+2  2.05E+2  1.85E+2    62
    7120  1404.11  2.18E+2  1.82E+2  1.63E+2    77
    7125  1403.13  2.82E+2  2.38E+2  2.00E+2    87
    7130  1402.14  3.17E+2  2.85E+2  2.45E+2    62
    7135  1401.16  2.53E+2  2.39E+2  2.31E+2    55
    7140  1400.18  2.02E+2  2.15E+2  2.37E+2    54
    7145  1399.20  2.05E+2  2.32E+2  2.66E+2    50
    7150  1398.22  2.54E+2  2.56E+2  2.66E+2    56
    7155  1397.24  2.95E+2  2.62E+2  2.46E+2    64
    7160  1396.27  2.10E+2  1.85E+2  1.80E+2    67
    7165  1395.29  1.41E+2  1.28E+2  1.34E+2    63
    7170  1394.32  1.65E+2  1.47E+2  1.50E+2    72
    7175  1393.35  2.50E+2  2.19E+2  2.02E+2    74
    7180  1392.38  2.51E+2  2.24E+2  2.04E+2    68
    7185  1391.41  2.46E+2  2.38E+2  2.20E+2    59
    7190  1390.44  2.51E+2  2.68E+2  2.59E+2    53
    7195  1389.47  2.10E+2  2.50E+2  2.58E+2    57
    7200  1388.51  1.68E+2  2.14E+2  2.35E+2    51
    7205  1387.55  2.09E+2  2.44E+2  2.57E+2    49
    7210  1386.58  2.23E+2  2.56E+2  2.72E+2    51
    7215  1385.62  1.69E+2  2.10E+2  2.37E+2    56
    7220  1384.66  1.94E+2  2.33E+2  2.52E+2    60
    7225  1383.70  1.90E+2  2.33E+2  2.56E+2    55
    7230  1382.75  1.61E+2  2.37E+2  2.78E+2    52
    7235  1381.79  1.77E+2  2.46E+2  2.82E+2    54
    7240  1380.84  2.15E+2  2.50E+2  2.67E+2    58
    7245  1379.88  1.91E+2  2.33E+2  2.50E+2    55
    7250  1378.93  1.76E+2  2.12E+2  2.35E+2    58
    7255  1377.98  1.95E+2  2.27E+2  2.44E+2    65
    7260  1377.03  1.74E+2  2.18E+2  2.33E+2    56
    7265  1376.09  1.48E+2  1.87E+2  2.15E+2    61
    7270  1375.14  1.46E+2  1.77E+2  2.07E+2    66
    7275  1374.19  1.42E+2  1.72E+2  1.99E+2    58
    7280  1373.25  1.16E+2  1.67E+2  2.07E+2    55
    7285  1372.31  1.23E+2  1.81E+2  2.26E+2    44
    7290  1371.37  1.69E+2  2.16E+2  2.49E+2    43
    7295  1370.43  1.25E+2  1.87E+2  2.25E+2    57
    7300  1369.49  8.39E+1  1.30E+2  1.59E+2    64
    7305  1368.55  1.32E+2  1.47E+2  1.60E+2    69
    7310  1367.61  1.83E+2  1.78E+2  1.68E+2    72
    7315  1366.68  1.76E+2  1.66E+2  1.51E+2    72
    7320  1365.75  1.98E+2  1.97E+2  1.79E+2    68
    7325  1364.81  2.43E+2  2.33E+2  2.10E+2    57
    7330  1363.88  2.30E+2  2.08E+2  1.92E+2    59
    7335  1362.95  2.21E+2  1.97E+2  1.88E+2    72
    7340  1362.03  2.51E+2  2.02E+2  1.91E+2    82
    7345  1361.10  1.80E+2  1.44E+2  1.43E+2    79
    7350  1360.17  1.89E+2  1.53E+2  1.46E+2    70
    7355  1359.25  2.57E+2  2.03E+2  1.81E+2    62
    7360  1358.32  2.12E+2  1.82E+2  1.78E+2    57
    7365  1357.40  2.87E+2  2.87E+2  2.89E+2    51
    7370  1356.48  3.03E+2  3.09E+2  3.10E+2    47
    7375  1355.56  1.79E+2  1.77E+2  1.87E+2    52
    7380  1354.64  1.47E+2  1.45E+2  1.56E+2    65
    7385  1353.73  1.92E+2  1.64E+2  1.63E+2    78
    7390  1352.81  1.99E+2  1.89E+2  1.90E+2    76
    7395  1351.90  1.16E+2  1.38E+2  1.64E+2    71
    7400  1350.98  1.02E+2  1.21E+2  1.49E+2    65
    7405  1350.07  1.06E+2  1.31E+2  1.66E+2    65
    7410  1349.16  8.42E+1  1.12E+2  1.42E+2    87
    7415  1348.25  9.73E+1  1.35E+2  1.67E+2    93
    7420  1347.34  1.08E+2  1.60E+2  1.96E+2    80
    7425  1346.43  1.09E+2  1.56E+2  1.78E+2    87
    7430  1345.53  1.01E+2  1.51E+2  1.70E+2    83
    7435  1344.62  8.55E+1  1.51E+2  1.75E+2   106
    7440  1343.72  9.65E+1  1.61E+2  1.78E+2   119
    7445  1342.82  1.16E+2  1.76E+2  1.84E+2   133
    7450  1341.91  1.26E+2  1.90E+2  1.93E+2   161
    7455  1341.01  1.28E+2  1.81E+2  1.79E+2   141
    7460  1340.12  1.07E+2  1.35E+2  1.37E+2   167
    7465  1339.22  9.60E+1  1.18E+2  1.24E+2   231
    7470  1338.32  1.06E+2  1.20E+2  1.23E+2   246
    7475  1337.43  1.15E+2  1.13E+2  1.12E+2   232
    7480  1336.53  8.27E+1  8.45E+1  9.16E+1   210
    7485  1335.64  5.08E+1  6.34E+1  7.99E+1   166
    7490  1334.75  4.13E+1  5.53E+1  7.50E+1   117
    7495  1333.86  3.01E+1  4.80E+1  7.53E+1    81
    7500  1332.97  2.18E+1  4.44E+1  8.55E+1    76
    7505  1332.08  5.16E+1  7.74E+1  1.32E+2   116
    7510  1331.19  2.15E+2  2.85E+2  3.46E+2   115
    7515  1330.31  1.64E+2  2.24E+2  2.63E+2   101
    7520  1329.42  6.35E+1  8.87E+1  1.18E+2   156
    7525  1328.54  2.73E+1  3.35E+1  5.58E+1   175
    7530  1327.66  3.01E+1  2.68E+1  3.69E+1   255
    7535  1326.78  3.43E+1  2.25E+1  2.68E+1   298
    7540  1325.90  5.05E+1  3.25E+1  3.29E+1   374
    7545  1325.02  6.38E+1  4.88E+1  5.16E+1   327
    7550  1324.14  7.38E+1  6.02E+1  6.78E+1   281
    7555  1323.26  9.73E+1  6.08E+1  4.89E+1   610
    7560  1322.39  1.06E+2  6.24E+1  4.70E+1   835
    7565  1321.52  9.27E+1  6.20E+1  5.06E+1   747
    7570  1320.64  5.55E+1  4.30E+1  3.95E+1   674
    7575  1319.77  5.70E+1  4.68E+1  4.04E+1   583
    7580  1318.90  4.04E+1  4.04E+1  3.61E+1   350
    7585  1318.03  5.14E+1  5.58E+1  5.13E+1   301
    7590  1317.16  3.55E+1  4.33E+1  4.57E+1   314
    7595  1316.30  2.99E+1  4.76E+1  5.45E+1   359
    7600  1315.43  2.44E+1  3.78E+1  4.68E+1   586
    7605  1314.56  1.60E+1  3.51E+1  4.80E+1   516
    7610  1313.70  1.37E+1  3.01E+1  4.22E+1   607
    7615  1312.84  6.73E+0  2.16E+1  3.52E+1   466
    7620  1311.98  9.30E+0  2.55E+1  4.11E+1   257
    7625  1311.12  5.58E+0  1.75E+1  3.17E+1   271
    7630  1310.26  5.15E+0  1.73E+1  3.30E+1   223
    7635  1309.40  3.62E+0  1.20E+1  2.47E+1   218
    7640  1308.54  1.75E+0  7.90E+0  1.93E+1   197
    7645  1307.69  2.25E+0  7.55E+0  1.67E+1   155
    7650  1306.83  1.71E+0  5.50E+0  1.24E+1   222
    7655  1305.98  9.44E-1  4.04E+0  1.07E+1   162
    7660  1305.13  1.37E+0  4.38E+0  9.82E+0   112
    7665  1304.27  9.96E-1  3.31E+0  7.82E+0   148
    7670  1303.42  5.05E-1  2.17E+0  6.32E+0   181
    7675  1302.58  7.26E-1  2.12E+0  5.13E+0   115
    7680  1301.73  5.47E-1  1.73E+0  4.55E+0   129
    7685  1300.88  3.71E-1  1.12E+0  3.09E+0   188
    7690  1300.03  4.36E-1  1.24E+0  3.06E+0   214
    7695  1299.19  3.54E-1  1.07E+0  2.79E+0   199
    7700  1298.35  2.28E-1  6.72E-1  1.95E+0   232
    7705  1297.50  2.15E-1  6.26E-1  1.80E+0   267
    7710  1296.66  2.22E-1  6.46E-1  1.73E+0   292
    7715  1295.82  1.60E-1  4.52E-1  1.36E+0   431
    7720  1294.98  1.31E-1  3.79E-1  1.23E+0   479
    7725  1294.14  1.28E-1  3.97E-1  1.25E+0   442
    7730  1293.31  9.94E-2  2.85E-1  1.00E+0   631
    7735  1292.47  9.10E-2  2.39E-1  8.65E-1   787
    7740  1291.64  8.79E-2  2.33E-1  8.50E-1   801
    7745  1290.80  7.88E-2  1.86E-1  7.05E-1  1043
    7750  1289.97  7.65E-2  1.82E-1  6.91E-1  1053
    7755  1289.14  7.45E-2  1.70E-1  6.48E-1  1089
    7760  1288.31  6.78E-2  1.38E-1  5.31E-1  1242
    7765  1287.48  6.79E-2  1.35E-1  5.12E-1  1244
    7770  1286.65  7.12E-2  1.33E-1  4.84E-1  1258
    7775  1285.82  6.93E-2  1.31E-1  4.78E-1  1202
    7780  1285.00  6.74E-2  1.23E-1  4.39E-1  1215
    7785  1284.17  7.12E-2  1.22E-1  4.09E-1  1205
    7790  1283.35  6.96E-2  1.18E-1  3.95E-1  1203
    7795  1282.52  7.11E-2  1.15E-1  3.68E-1  1230
    7800  1281.70  8.18E-2  1.23E-1  3.52E-1  1172
    7805  1280.88  8.52E-2  1.24E-1  3.39E-1  1183
    7810  1280.06  8.61E-2  1.24E-1  3.25E-1  1233
    7815  1279.24  1.02E-1  1.43E-1  3.48E-1  1142
    7820  1278.42  1.14E-1  1.53E-1  3.44E-1  1149
    7825  1277.61  1.23E-1  1.59E-1  3.36E-1  1159
    7830  1276.79  1.29E-1  1.66E-1  3.40E-1  1106
    7835  1275.98  1.26E-1  1.65E-1  3.42E-1  1088
    7840  1275.16  1.30E-1  1.67E-1  3.39E-1  1012
    7845  1274.35  1.78E-1  2.20E-1  3.81E-1   531
    7850  1273.54  1.75E-1  2.16E-1  3.69E-1   428
    7855  1272.73  1.61E-1  1.96E-1  3.33E-1   458
    7860  1271.92  1.84E-1  2.17E-1  3.40E-1   383
    7865  1271.11  1.98E-1  2.25E-1  3.41E-1   355
    7870  1270.30  2.19E-1  2.45E-1  3.60E-1   298
    7875  1269.49  1.89E-1  2.15E-1  3.31E-1   382
    7880  1268.69  1.60E-1  1.84E-1  2.97E-1   507
    7885  1267.88  2.38E-1  2.50E-1  3.29E-1   314
    7890  1267.08  2.82E-1  3.00E-1  3.85E-1   219
    7895  1266.28  2.18E-1  2.57E-1  3.78E-1   276
    7900  1265.48  1.90E-1  2.24E-1  3.39E-1   360
    7905  1264.68  1.96E-1  2.16E-1  3.06E-1   400
    7910  1263.88  2.85E-1  2.89E-1  3.48E-1   243
    7915  1263.08  4.07E-1  4.03E-1  4.47E-1   128
    7920  1262.28  3.91E-1  3.84E-1  4.34E-1   141
    7925  1261.48  3.01E-1  3.13E-1  3.81E-1   208
    7930  1260.69  2.90E-1  3.24E-1  4.18E-1   186
    7935  1259.89  2.72E-1  3.13E-1  4.26E-1   192
    7940  1259.10  2.30E-1  2.78E-1  4.10E-1   237
    7945  1258.31  2.58E-1  3.13E-1  4.57E-1   187
    7950  1257.52  2.43E-1  2.97E-1  4.46E-1   190
    7955  1256.73  1.98E-1  2.50E-1  4.05E-1   263
    7960  1255.94  1.88E-1  2.38E-1  3.96E-1   308
    7965  1255.15  2.48E-1  2.95E-1  4.45E-1   200
    7970  1254.36  2.64E-1  3.13E-1  4.69E-1   174
    7975  1253.58  3.14E-1  3.69E-1  5.33E-1   127
    7980  1252.79  4.15E-1  4.70E-1  6.31E-1    85
    7985  1252.01  4.19E-1  4.97E-1  6.84E-1    74
    7990  1251.22  4.38E-1  5.14E-1  7.03E-1    71
    7995  1250.44  4.11E-1  4.93E-1  7.03E-1    73
    8000  1249.66  4.43E-1  5.29E-1  7.57E-1    64
    8005  1248.88  5.69E-1  6.00E-1  7.73E-1    55
    8010  1248.10  5.85E-1  6.34E-1  8.24E-1    49
    8015  1247.32  5.42E-1  6.85E-1  9.57E-1    40
    8020  1246.54  7.35E-1  8.82E-1  1.13E+0    26
    8025  1245.77  9.57E-1  1.05E+0  1.23E+0    22
    8030  1244.99  9.40E-1  1.07E+0  1.29E+0    22
    8035  1244.21  9.86E-1  1.09E+0  1.32E+0    21
    8040  1243.44  7.73E-1  8.67E-1  1.13E+0    26
    8045  1242.67  7.71E-1  8.87E-1  1.15E+0    25
    8050  1241.90  8.50E-1  1.05E+0  1.38E+0    21
    8055  1241.13  8.39E-1  1.03E+0  1.37E+0    22
    8060  1240.36  1.13E+0  1.24E+0  1.49E+0    40
    8065  1239.59  1.21E+0  1.35E+0  1.63E+0    26
    8070  1238.82  1.11E+0  1.30E+0  1.63E+0    19
    8075  1238.05  1.13E+0  1.32E+0  1.72E+0    60
    8080  1237.29  1.73E+0  1.78E+0  2.08E+0   104
    8085  1236.52  2.10E+0  2.04E+0  2.24E+0    66
    8090  1235.76  2.00E+0  2.16E+0  2.47E+0    80
    8095  1234.99  2.75E+0  3.10E+0  3.36E+0    85
    8100  1234.23  2.42E+0  3.01E+0  3.49E+0    92
    8105  1233.47  1.44E+0  2.11E+0  2.81E+0    79
    8110  1232.71  1.66E+0  2.20E+0  2.73E+0    52
    8115  1231.95  2.25E+0  2.65E+0  2.97E+0    54
    8120  1231.19  3.20E+0  3.35E+0  3.45E+0    67
    8125  1230.43  4.25E+0  4.01E+0  3.91E+0    63
    8130  1229.68  3.63E+0  3.59E+0  3.69E+0    59
    8135  1228.92  2.99E+0  3.14E+0  3.34E+0    59
    8140  1228.17  2.31E+0  2.77E+0  3.12E+0    48
    8145  1227.41  1.86E+0  2.41E+0  2.85E+0    17
    8150  1226.66  1.84E+0  2.26E+0  2.68E+0    20
    8155  1225.91  1.52E+0  2.03E+0  2.58E+0    20
    8160  1225.16  1.50E+0  2.15E+0  2.83E+0    20
    8165  1224.40  1.53E+0  2.12E+0  2.76E+0    23
    8170  1223.66  1.31E+0  1.97E+0  2.73E+0    19
    8175  1222.91  1.24E+0  1.94E+0  2.85E+0    43
    8180  1222.16  1.22E+0  1.78E+0  2.56E+0    40
    8185  1221.41  1.17E+0  1.83E+0  2.67E+0    18
    8190  1220.67  1.43E+0  2.27E+0  3.31E+0    63
    8195  1219.92  1.30E+0  2.03E+0  3.09E+0    80
    8200  1219.18  8.90E-1  1.61E+0  2.74E+0    27
    8205  1218.44  1.16E+0  1.99E+0  3.17E+0    36
    8210  1217.69  1.58E+0  2.60E+0  3.89E+0    65
    8215  1216.95  1.54E+0  2.85E+0  4.31E+0    47
    8220  1216.21  1.55E+0  2.86E+0  4.34E+0    23
    8225  1215.47  1.49E+0  2.93E+0  4.62E+0    25
    8230  1214.73  1.27E+0  2.61E+0  4.33E+0    38
    8235  1214.00  1.79E+0  3.33E+0  5.09E+0    63
    8240  1213.26  2.81E+0  5.01E+0  7.08E+0    59
    8245  1212.52  3.21E+0  5.33E+0  7.39E+0    71
    8250  1211.79  3.10E+0  4.87E+0  6.74E+0    67
    8255  1211.06  3.25E+0  5.37E+0  7.46E+0    65
    8260  1210.32  4.16E+0  6.25E+0  8.36E+0    76
    8265  1209.59  4.40E+0  6.23E+0  8.44E+0    77
    8270  1208.86  3.13E+0  5.49E+0  8.32E+0    60
    8275  1208.13  3.58E+0  6.51E+0  9.78E+0    62
    8280  1207.40  6.09E+0  8.95E+0  1.21E+1    51
    8285  1206.67  6.91E+0  9.66E+0  1.28E+1    52
    8290  1205.94  6.92E+0  9.97E+0  1.37E+1    55
    8295  1205.22  8.19E+0  1.15E+1  1.54E+1    49
    8300  1204.49  9.09E+0  1.26E+1  1.61E+1    40
    8305  1203.76  1.16E+1  1.44E+1  1.80E+1    52
    8310  1203.04  1.53E+1  1.76E+1  2.08E+1    60
    8315  1202.32  1.61E+1  1.82E+1  2.06E+1    52
    8320  1201.59  1.82E+1  1.96E+1  2.16E+1    52
    8325  1200.87  2.22E+1  2.16E+1  2.29E+1    64
    8330  1200.15  2.44E+1  2.37E+1  2.50E+1    61
    8335  1199.43  2.12E+1  2.07E+1  2.23E+1    62
    8340  1198.71  1.81E+1  2.05E+1  2.31E+1    67
    8345  1197.99  1.55E+1  2.07E+1  2.46E+1    61
    8350  1197.28  2.23E+1  2.27E+1  2.47E+1    63
    8355  1196.56  3.17E+1  2.95E+1  3.00E+1    65
    8360  1195.84  3.08E+1  2.98E+1  3.03E+1    55
    8365  1195.13  3.30E+1  3.07E+1  3.05E+1    49
    8370  1194.42  3.44E+1  3.13E+1  3.08E+1    49
    8375  1193.70  3.91E+1  3.50E+1  3.38E+1    51
    8380  1192.99  4.23E+1  3.82E+1  3.70E+1    47
    8385  1192.28  5.27E+1  4.52E+1  4.29E+1    41
    8390  1191.57  5.15E+1  4.62E+1  4.59E+1    38
    8395  1190.86  3.96E+1  3.97E+1  4.45E+1    34
    8400  1190.15  3.72E+1  3.76E+1  4.45E+1    37
    8405  1189.44  3.63E+1  4.04E+1  4.80E+1    38
    8410  1188.74  4.99E+1  5.59E+1  6.11E+1    38
    8415  1188.03  7.89E+1  7.60E+1  7.53E+1    45
    8420  1187.32  9.32E+1  8.55E+1  8.39E+1    49
    8425  1186.62  6.38E+1  5.66E+1  5.91E+1    50
    8430  1185.92  5.69E+1  4.78E+1  4.94E+1    46
    8435  1185.21  6.62E+1  5.44E+1  5.40E+1    44
    8440  1184.51  5.67E+1  4.93E+1  5.23E+1    39
    8445  1183.81  6.15E+1  5.19E+1  5.51E+1    34
    8450  1183.11  5.54E+1  4.83E+1  5.45E+1    34
    8455  1182.41  5.49E+1  5.27E+1  6.21E+1    42
    8460  1181.71  5.68E+1  5.59E+1  6.51E+1    41
    8465  1181.01  5.03E+1  5.22E+1  6.34E+1    35
    8470  1180.31  6.09E+1  6.27E+1  7.39E+1    38
    8475  1179.62  5.07E+1  6.38E+1  7.90E+1    37
    8480  1178.92  3.72E+1  5.80E+1  7.94E+1    35
    8485  1178.23  4.25E+1  6.41E+1  8.71E+1    35
    8490  1177.53  3.97E+1  6.38E+1  8.69E+1    32
    8495  1176.84  3.09E+1  6.04E+1  8.94E+1    30
    8500  1176.15  3.33E+1  6.48E+1  9.41E+1    33
    8505  1175.46  3.89E+1  7.22E+1  1.00E+2    33
    8510  1174.77  4.16E+1  7.83E+1  1.08E+2    31
    8515  1174.08  5.36E+1  8.68E+1  1.11E+2    34
    8520  1173.39  5.80E+1  9.69E+1  1.21E+2    31
    8525  1172.70  6.26E+1  1.01E+2  1.21E+2    31
    8530  1172.01  8.81E+1  1.19E+2  1.30E+2    41
    8535  1171.33  9.10E+1  1.25E+2  1.34E+2    43
    8540  1170.64  8.77E+1  1.29E+2  1.41E+2    42
    8545  1169.95  1.33E+2  1.67E+2  1.70E+2    47
    8550  1169.27  1.64E+2  1.78E+2  1.70E+2    45
    8555  1168.59  1.56E+2  1.63E+2  1.54E+2    51
    8560  1167.90  1.96E+2  1.78E+2  1.59E+2    52
    8565  1167.22  2.75E+2  2.23E+2  1.89E+2    48
    8570  1166.54  2.79E+2  2.23E+2  1.96E+2    47
    8575  1165.86  2.41E+2  2.03E+2  1.90E+2    43
    8580  1165.18  2.09E+2  2.09E+2  2.17E+2    35
    8585  1164.50  2.18E+2  2.41E+2  2.58E+2    30
    8590  1163.83  2.73E+2  2.73E+2  2.63E+2    33
    8595  1163.15  2.95E+2  2.89E+2  2.62E+2    32
    8600  1162.47  4.08E+2  3.72E+2  3.08E+2    37
    8605  1161.80  5.80E+2  4.49E+2  3.29E+2    45
    8610  1161.12  4.22E+2  3.10E+2  2.29E+2    51
    8615  1160.45  3.42E+2  2.46E+2  1.87E+2    52
    8620  1159.78  2.99E+2  2.15E+2  1.72E+2    47
    8625  1159.10  2.09E+2  1.55E+2  1.33E+2    43
    8630  1158.43  1.70E+2  1.37E+2  1.26E+2    45
    8635  1157.76  1.97E+2  1.65E+2  1.53E+2    43
    8640  1157.09  2.97E+2  2.56E+2  2.23E+2    41
    8645  1156.42  3.62E+2  3.15E+2  2.61E+2    42
    8650  1155.75  3.42E+2  3.12E+2  2.57E+2    39
    8655  1155.09  3.13E+2  3.11E+2  2.70E+2    39
    8660  1154.42  2.50E+2  2.74E+2  2.56E+2    41
    8665  1153.75  1.75E+2  2.23E+2  2.28E+2    34
    8670  1153.09  1.45E+2  2.10E+2  2.30E+2    36
    8675  1152.42  1.18E+2  1.85E+2  2.19E+2    37
    8680  1151.76  7.95E+1  1.49E+2  1.94E+2    31
    8685  1151.10  6.93E+1  1.28E+2  1.74E+2    27
    8690  1150.43  5.58E+1  1.03E+2  1.52E+2    25
    8695  1149.77  4.89E+1  9.47E+1  1.46E+2    24
    8700  1149.11  4.88E+1  8.88E+1  1.36E+2    23
    8705  1148.45  3.61E+1  7.16E+1  1.14E+2    23
    8710  1147.79  3.35E+1  6.50E+1  1.05E+2    24
    8715  1147.13  3.28E+1  6.15E+1  9.70E+1    24
    8720  1146.47  2.95E+1  5.57E+1  8.61E+1    24
    8725  1145.82  2.74E+1  5.25E+1  8.09E+1    29
    8730  1145.16  3.30E+1  5.65E+1  7.97E+1    35
    8735  1144.51  3.59E+1  5.81E+1  7.90E+1    42
    8740  1143.85  4.32E+1  5.98E+1  7.50E+1    45
    8745  1143.20  5.79E+1  6.74E+1  7.42E+1    47
    8750  1142.54  5.25E+1  5.89E+1  6.48E+1    59
    8755  1141.89  5.15E+1  5.19E+1  5.56E+1    65
    8760  1141.24  7.00E+1  6.03E+1  5.81E+1    87
    8765  1140.59  7.18E+1  5.59E+1  5.21E+1    80
    8770  1139.94  7.16E+1  5.37E+1  5.06E+1    70
    8775  1139.29  6.94E+1  5.50E+1  5.49E+1    70
    8780  1138.64  6.32E+1  5.16E+1  5.55E+1    56
    8785  1137.99  6.80E+1  6.09E+1  6.81E+1    47
    8790  1137.34  8.40E+1  7.80E+1  8.33E+1    49
    8795  1136.70  1.01E+2  9.44E+1  9.79E+1    57
    8800  1136.05  1.17E+2  1.21E+2  1.28E+2    44
    8805  1135.41  2.10E+2  2.10E+2  2.04E+2    42
    8810  1134.76  2.08E+2  1.85E+2  1.59E+2    62
    8815  1134.12  1.17E+2  9.82E+1  8.38E+1    67
    8820  1133.48  1.17E+2  9.33E+1  7.69E+1    60
    8825  1132.83  1.05E+2  8.28E+1  6.85E+1    59
    8830  1132.19  1.12E+2  8.48E+1  6.95E+1    64
    8835  1131.55  1.07E+2  8.38E+1  7.09E+1    74
    8840  1130.91  1.18E+2  9.05E+1  7.43E+1   105
    8845  1130.27  1.49E+2  1.12E+2  8.52E+1   103
    8850  1129.63  1.39E+2  1.16E+2  9.30E+1    86
    8855  1129.00  1.43E+2  1.25E+2  1.02E+2    87
    8860  1128.36  1.29E+2  1.16E+2  9.56E+1    76
    8865  1127.72  1.40E+2  1.34E+2  1.14E+2    71
    8870  1127.09  1.09E+2  1.24E+2  1.16E+2    66
    8875  1126.45  7.93E+1  1.02E+2  1.05E+2    58
    8880  1125.82  7.02E+1  9.88E+1  1.08E+2    67
    8885  1125.18  4.98E+1  7.81E+1  9.39E+1    62
    8890  1124.55  3.73E+1  6.71E+1  8.96E+1    50
    8895  1123.92  3.66E+1  7.12E+1  1.02E+2    38
    8900  1123.29  5.91E+1  9.90E+1  1.32E+2    37
    8905  1122.66  8.19E+1  1.10E+2  1.30E+2    57
    8910  1122.03  4.05E+1  5.44E+1  7.67E+1    70
    8915  1121.40  2.05E+1  3.23E+1  5.44E+1    66
    8920  1120.77  1.72E+1  2.48E+1  4.58E+1    66
    8925  1120.14  1.28E+1  1.99E+1  3.89E+1    63
    8930  1119.51  1.63E+1  1.83E+1  3.14E+1    71
    8935  1118.89  1.96E+1  1.93E+1  2.97E+1    73
    8940  1118.26  2.23E+1  2.04E+1  2.90E+1    95
    8945  1117.64  2.92E+1  2.23E+1  2.81E+1   120
    8950  1117.01  4.29E+1  3.03E+1  3.24E+1   155
    8955  1116.39  3.31E+1  2.48E+1  2.69E+1   146
    8960  1115.77  2.69E+1  2.30E+1  2.51E+1   130
    8965  1115.14  1.74E+1  1.69E+1  2.01E+1   142
    8970  1114.52  1.41E+1  1.61E+1  1.99E+1   176
    8975  1113.90  1.76E+1  2.24E+1  2.63E+1   144
    8980  1113.28  1.14E+1  1.77E+1  2.26E+1   160
    8985  1112.66  7.37E+0  1.27E+1  1.77E+1   181
    8990  1112.04  6.46E+0  1.29E+1  1.87E+1   116
    8995  1111.42  3.79E+0  8.98E+0  1.49E+1   179
    9000  1110.81  2.69E+0  6.81E+0  1.26E+1   125
    9005  1110.19  2.52E+0  6.88E+0  1.29E+1    84
    9010  1109.57  1.82E+0  4.89E+0  9.87E+0    52
    9015  1108.96  1.83E+0  4.32E+0  8.77E+0    44
    9020  1108.34  2.78E+0  4.82E+0  8.43E+0    32
    9025  1107.73  2.68E+0  5.13E+0  9.07E+0    20
    9030  1107.12  1.21E+0  3.23E+0  7.15E+0    25
    9035  1106.50  9.02E-1  2.18E+0  5.13E+0    48
    9040  1105.89  4.50E+0  6.05E+0  8.56E+0   224
    9045  1105.28  8.23E+0  7.49E+0  8.38E+0   296
    9050  1104.67  1.86E+0  2.07E+0  3.48E+0   202
    9055  1104.06  1.15E+0  1.32E+0  2.45E+0   130
    9060  1103.45  1.40E+0  1.47E+0  2.43E+0   191
    9065  1102.84  1.23E+0  1.32E+0  2.26E+0   212
    9070  1102.23  1.08E+0  1.10E+0  1.91E+0   258
    9075  1101.63  1.54E+0  1.35E+0  2.03E+0   413
    9080  1101.02  1.43E+0  1.30E+0  1.92E+0   415
    9085  1100.41  2.12E+0  1.97E+0  2.70E+0   691
    9090  1099.81  3.04E+0  2.46E+0  2.96E+0   725
    9095  1099.20  2.29E+0  1.86E+0  2.28E+0   398
    9100  1098.60  3.82E+0  3.00E+0  3.45E+0   548
    9105  1098.00  3.26E+0  2.69E+0  3.28E+0   557
    9110  1097.39  1.99E+0  2.05E+0  2.84E+0   565
    9115  1096.79  2.13E+0  2.27E+0  3.03E+0   516
    9120  1096.19  2.57E+0  3.03E+0  4.00E+0   856
    9125  1095.59  2.45E+0  3.18E+0  4.33E+0   683
    9130  1094.99  2.07E+0  2.83E+0  4.05E+0   441
    9135  1094.39  1.57E+0  2.28E+0  3.54E+0   544
    9140  1093.79  1.36E+0  2.15E+0  3.43E+0   293
    9145  1093.19  1.14E+0  1.82E+0  3.16E+0   288
    9150  1092.60  8.79E-1  1.46E+0  2.79E+0   207
    9155  1092.00  8.34E-1  1.46E+0  2.89E+0   227
    9160  1091.40  5.73E-1  1.00E+0  2.16E+0    91
    9165  1090.81  4.95E-1  9.71E-1  2.25E+0    45
    9170  1090.21  4.08E-1  7.42E-1  1.86E+0    77
    9175  1089.62  3.35E-1  5.58E-1  1.49E+0    84
    9180  1089.03  2.87E-1  4.65E-1  1.33E+0   164
    9185  1088.43  2.53E-1  4.11E-1  1.23E+0   183
    9190  1087.84  2.01E-1  3.23E-1  1.03E+0   204
    9195  1087.25  1.66E-1  2.79E-1  9.64E-1   211
    9200  1086.66  1.37E-1  2.26E-1  8.23E-1   266
    9205  1086.07  8.68E-2  1.46E-1  6.09E-1   579
    9210  1085.48  8.10E-2  1.41E-1  6.05E-1   621
    9215  1084.89  6.88E-2  1.19E-1  5.28E-1   604
    9220  1084.30  5.13E-2  9.11E-2  4.39E-1   830
    9225  1083.71  5.13E-2  9.02E-2  4.27E-1   965
    9230  1083.13  5.21E-2  8.87E-2  3.99E-1   967
    9235  1082.54  4.68E-2  7.77E-2  3.41E-1   944
    9240  1081.95  4.86E-2  7.79E-2  3.14E-1   991
    9245  1081.37  5.37E-2  8.27E-2  2.96E-1  1021
    9250  1080.79  5.81E-2  8.49E-2  2.71E-1   985
    9255  1080.20  5.40E-2  7.75E-2  2.36E-1   915
    9260  1079.62  5.15E-2  7.29E-2  2.16E-1   883
    9265  1079.04  5.66E-2  7.84E-2  2.18E-1   634
    9270  1078.45  5.84E-2  7.97E-2  2.10E-1   605
    9275  1077.87  4.96E-2  6.99E-2  1.99E-1   720
    9280  1077.29  4.00E-2  5.95E-2  1.98E-1   742
    9285  1076.71  3.13E-2  4.93E-2  1.86E-1   762
    9290  1076.13  2.52E-2  4.10E-2  1.71E-1   782
    9295  1075.55  2.15E-2  3.62E-2  1.67E-1   780
    9300  1074.97  2.08E-2  3.53E-2  1.70E-1   830
    9305  1074.40  2.35E-2  3.85E-2  1.66E-1   760
    9310  1073.82  2.58E-2  4.06E-2  1.53E-1   766
    9315  1073.24  3.03E-2  4.50E-2  1.45E-1   731
    9320  1072.67  3.51E-2  4.98E-2  1.40E-1   695
    9325  1072.09  4.18E-2  5.64E-2  1.36E-1   528
    9330  1071.52  5.08E-2  6.59E-2  1.42E-1   602
    9335  1070.94  6.13E-2  7.55E-2  1.39E-1   656
    9340  1070.37  6.72E-2  8.03E-2  1.33E-1   606
    9345  1069.80  5.62E-2  6.97E-2  1.28E-1   614
    9350  1069.23  4.34E-2  5.74E-2  1.29E-1   556
    9355  1068.65  4.23E-2  5.70E-2  1.34E-1   704
    9360  1068.08  4.70E-2  6.34E-2  1.50E-1   736
    9365  1067.51  4.24E-2  5.85E-2  1.45E-1   648
    9370  1066.94  3.31E-2  4.79E-2  1.38E-1   737
    9375  1066.37  2.92E-2  4.42E-2  1.45E-1   772
    9380  1065.81  2.94E-2  4.35E-2  1.31E-1   745
    9385  1065.24  3.42E-2  4.84E-2  1.27E-1   735
    9390  1064.67  4.25E-2  5.65E-2  1.24E-1   743
    9395  1064.10  5.32E-2  6.88E-2  1.34E-1   737
    9400  1063.54  7.86E-2  9.57E-2  1.52E-1   693
    9405  1062.97  8.84E-2  1.04E-1  1.50E-1   651
    9410  1062.41  9.49E-2  1.11E-1  1.58E-1   651
    9415  1061.84  1.01E-1  1.16E-1  1.55E-1   572
    9420  1061.28  1.02E-1  1.17E-1  1.56E-1   689
    9425  1060.72  1.11E-1  1.27E-1  1.66E-1   666
    9430  1060.16  1.09E-1  1.25E-1  1.62E-1   458
    9435  1059.59  9.99E-2  1.19E-1  1.71E-1   626
    9440  1059.03  9.96E-2  1.24E-1  1.96E-1   678
    9445  1058.47  1.03E-1  1.30E-1  2.06E-1   637
    9450  1057.91  8.95E-2  1.16E-1  1.98E-1   540
    9455  1057.35  7.92E-2  1.07E-1  2.06E-1   630
    9460  1056.79  8.93E-2  1.20E-1  2.23E-1   626
    9465  1056.23  1.11E-1  1.46E-1  2.43E-1   398
    9470  1055.68  1.42E-1  1.87E-1  2.86E-1   338
    9475  1055.12  1.61E-1  2.09E-1  3.01E-1   351
    9480  1054.56  1.74E-1  2.22E-1  3.00E-1   365
    9485  1054.01  2.37E-1  2.96E-1  3.65E-1   381
    9490  1053.45  2.42E-1  2.98E-1  3.57E-1   400
    9495  1052.90  2.12E-1  2.60E-1  3.19E-1   409
    9500  1052.34  2.23E-1  2.81E-1  3.50E-1   379
    9505  1051.79  2.30E-1  3.04E-1  4.03E-1   351
    9510  1051.24  2.32E-1  3.09E-1  4.20E-1   325
    9515  1050.68  2.24E-1  3.01E-1  4.26E-1   308
    9520  1050.13  2.05E-1  2.86E-1  4.32E-1   298
    9525  1049.58  2.11E-1  3.03E-1  4.54E-1   292
    9530  1049.03  2.20E-1  3.15E-1  4.60E-1   286
    9535  1048.48  2.31E-1  3.45E-1  5.28E-1   266
    9540  1047.93  2.45E-1  3.84E-1  5.96E-1   249
    9545  1047.38  2.63E-1  4.04E-1  5.72E-1   238
    9550  1046.83  2.88E-1  4.31E-1  5.76E-1   232
    9555  1046.29  3.04E-1  4.46E-1  5.77E-1   234
    9560  1045.74  3.68E-1  5.60E-1  7.08E-1   224
    9565  1045.19  4.68E-1  7.01E-1  8.58E-1   207
    9570  1044.65  4.24E-1  5.96E-1  7.36E-1   206
    9575  1044.10  3.81E-1  5.55E-1  7.05E-1   215
    9580  1043.56  4.76E-1  6.93E-1  8.43E-1   205
    9585  1043.01  4.98E-1  7.34E-1  9.16E-1   192
    9590  1042.47  5.55E-1  8.29E-1  1.02E+0   180
    9595  1041.92  6.24E-1  9.07E-1  1.09E+0   170
    9600  1041.38  5.81E-1  8.74E-1  1.12E+0   166
    9605  1040.84  5.29E-1  8.28E-1  1.10E+0   163
    9610  1040.30  5.58E-1  8.65E-1  1.10E+0   159
    9615  1039.76  6.50E-1  9.92E-1  1.19E+0   153
    9620  1039.22  7.10E-1  1.10E+0  1.32E+0   147
    9625  1038.68  7.28E-1  1.14E+0  1.41E+0   141
    9630  1038.14  7.61E-1  1.17E+0  1.45E+0   136
    9635  1037.60  8.85E-1  1.31E+0  1.55E+0   133
    9640  1037.06  9.70E-1  1.43E+0  1.63E+0   129
    9645  1036.52  1.20E+0  1.65E+0  1.82E+0   123
    9650  1035.99  1.26E+0  1.73E+0  1.98E+0   117
    9655  1035.45  1.28E+0  1.75E+0  2.01E+0   114
    9660  1034.91  1.30E+0  1.78E+0  2.04E+0   111
    9665  1034.38  1.20E+0  1.73E+0  2.13E+0   107
    9670  1033.84  1.43E+0  2.09E+0  2.58E+0   106
    9675  1033.31  1.59E+0  2.34E+0  2.85E+0   109
    9680  1032.77  1.55E+0  2.08E+0  2.51E+0   105
    9685  1032.24  1.49E+0  2.09E+0  2.52E+0    86
    9690  1031.71  1.58E+0  2.40E+0  3.13E+0    88
    9695  1031.18  1.67E+0  2.56E+0  3.30E+0   101
    9700  1030.65  1.85E+0  2.69E+0  3.08E+0   115
    9705  1030.11  1.83E+0  2.87E+0  3.26E+0   129
    9710  1029.58  2.14E+0  3.51E+0  4.14E+0   123
    9715  1029.05  2.50E+0  3.79E+0  4.42E+0   111
    9720  1028.52  2.26E+0  3.39E+0  3.79E+0   116
    9725  1028.00  2.37E+0  3.68E+0  4.06E+0   122
    9730  1027.47  3.12E+0  5.03E+0  5.64E+0   118
    9735  1026.94  3.58E+0  5.25E+0  5.80E+0   111
    9740  1026.41  3.10E+0  4.46E+0  4.89E+0   103
    9745  1025.89  3.14E+0  4.78E+0  5.33E+0    96
    9750  1025.36  3.66E+0  5.24E+0  5.82E+0    92
    9755  1024.83  3.83E+0  5.25E+0  5.83E+0    89
    9760  1024.31  3.80E+0  5.07E+0  5.55E+0    92
    9765  1023.78  4.03E+0  5.39E+0  5.83E+0    91
    9770  1023.26  4.60E+0  6.26E+0  6.77E+0    88
    9775  1022.74  4.32E+0  5.88E+0  6.68E+0    84
    9780  1022.21  3.55E+0  5.10E+0  5.92E+0    78
    9785  1021.69  4.26E+0  6.00E+0  6.69E+0    82
    9790  1021.17  5.88E+0  8.08E+0  8.64E+0    90
    9795  1020.65  4.96E+0  7.28E+0  8.06E+0    84
    9800  1020.13  4.18E+0  6.39E+0  7.22E+0    69
    9805  1019.61  5.19E+0  7.28E+0  7.91E+0    58
    9810  1019.09  5.17E+0  7.27E+0  7.92E+0    48
    9815  1018.57  4.74E+0  6.70E+0  7.51E+0    44
    9820  1018.05  6.23E+0  7.97E+0  8.44E+0    43
    9825  1017.53  7.30E+0  8.94E+0  8.95E+0    40
    9830  1017.02  6.60E+0  8.23E+0  8.46E+0    37
    9835  1016.50  8.30E+0  9.50E+0  9.52E+0    37
    9840  1015.98  9.98E+0  1.04E+1  9.98E+0    36
    9845  1015.47  1.04E+1  1.04E+1  9.98E+0    35
    9850  1014.95  1.20E+1  1.10E+1  1.04E+1    33
    9855  1014.44  1.34E+1  1.16E+1  1.08E+1    35
    9860  1013.92  1.32E+1  1.19E+1  1.11E+1    37
    9865  1013.41  1.23E+1  1.15E+1  1.09E+1    35
    9870  1012.89  1.27E+1  1.21E+1  1.14E+1    33
    9875  1012.38  1.53E+1  1.37E+1  1.22E+1    33
    9880  1011.87  1.67E+1  1.46E+1  1.24E+1    34
    9885  1011.36  1.64E+1  1.48E+1  1.25E+1    36
    9890  1010.85  1.58E+1  1.39E+1  1.19E+1    38
    9895  1010.33  1.57E+1  1.38E+1  1.18E+1    38
    9900  1009.82  1.63E+1  1.41E+1  1.22E+1    37
    9905  1009.31  1.52E+1  1.30E+1  1.19E+1    33
    9910  1008.81  1.41E+1  1.23E+1  1.14E+1    31
    9915  1008.30  1.38E+1  1.18E+1  1.07E+1    31
    9920  1007.79  1.48E+1  1.22E+1  1.10E+1    31
    9925  1007.28  1.37E+1  1.20E+1  1.13E+1    31
    9930  1006.77  1.32E+1  1.22E+1  1.20E+1    31
    9935  1006.27  1.47E+1  1.34E+1  1.29E+1    32
    9940  1005.76  1.29E+1  1.27E+1  1.28E+1    32
    9945  1005.25  1.21E+1  1.30E+1  1.34E+1    32
    9950  1004.75  1.08E+1  1.26E+1  1.35E+1    31
    9955  1004.24  8.91E+0  1.16E+1  1.33E+1    29
    9960  1003.74  7.53E+0  1.03E+1  1.27E+1    29
    9965  1003.24  6.58E+0  9.75E+0  1.24E+1    29
    9970  1002.73  6.65E+0  1.00E+1  1.24E+1    28
    9975  1002.23  7.67E+0  1.05E+1  1.28E+1    26
    9980  1001.73  8.38E+0  1.11E+1  1.34E+1    24
    9985  1001.23  7.71E+0  1.04E+1  1.29E+1    23
    9990  1000.73  7.86E+0  1.04E+1  1.30E+1    22
    9995  1000.23  7.31E+0  1.05E+1  1.38E+1    21
   10000   999.73  6.83E+0  1.03E+1  1.40E+1    20
   10005   999.23  8.29E+0  1.14E+1  1.46E+1    20
   10010   998.73  1.18E+1  1.33E+1  1.54E+1    20
   10015   998.23  1.04E+1  1.14E+1  1.34E+1    20
   10020   997.73  7.49E+0  9.96E+0  1.24E+1    21
   10025   997.23  8.20E+0  1.04E+1  1.22E+1    22
   10030   996.74  1.01E+1  1.13E+1  1.26E+1    23
   10035   996.24  1.31E+1  1.41E+1  1.45E+1    24
   10040   995.74  1.36E+1  1.47E+1  1.45E+1    24
   10045   995.25  1.18E+1  1.34E+1  1.39E+1    23
   10050   994.75  1.12E+1  1.25E+1  1.31E+1    23
   10055   994.26  1.12E+1  1.14E+1  1.13E+1    25
   10060   993.76  1.11E+1  1.07E+1  1.03E+1    27
   10065   993.27  1.24E+1  1.14E+1  1.08E+1    30
   10070   992.78  1.16E+1  1.08E+1  1.04E+1    31
   10075   992.28  9.60E+0  9.89E+0  9.93E+0    31
   10080   991.79  1.16E+1  1.15E+1  1.13E+1    29
   10085   991.30  1.31E+1  1.24E+1  1.26E+1    26
   10090   990.81  1.29E+1  1.27E+1  1.32E+1    23
   10095   990.32  1.35E+1  1.32E+1  1.31E+1    22
   10100   989.83  1.31E+1  1.31E+1  1.28E+1    21
   10105   989.34  1.51E+1  1.41E+1  1.37E+1    22
   10110   988.85  1.99E+1  1.68E+1  1.48E+1    22
   10115   988.36  2.23E+1  1.78E+1  1.49E+1    21
   10120   987.87  1.89E+1  1.60E+1  1.38E+1    21
   10125   987.38  1.38E+1  1.24E+1  1.13E+1    23
   10130   986.90  1.08E+1  9.96E+0  9.33E+0    25
   10135   986.41  9.68E+0  9.12E+0  8.78E+0    27
   10140   985.92  8.92E+0  8.42E+0  8.11E+0    29
   10145   985.44  8.23E+0  7.88E+0  7.48E+0    33
   10150   984.95  8.49E+0  7.61E+0  7.15E+0    37
   10155   984.47  1.03E+1  8.67E+0  7.56E+0    39
   10160   983.98  9.40E+0  8.56E+0  7.79E+0    41
   10165   983.50  9.82E+0  9.15E+0  8.61E+0    43
   10170   983.01  1.02E+1  9.68E+0  9.53E+0    44
   10175   982.53  7.51E+0  8.00E+0  8.84E+0    40
   10180   982.05  6.50E+0  7.40E+0  8.34E+0    36
   10185   981.57  5.61E+0  7.00E+0  8.42E+0    34
   10190   981.09  4.81E+0  6.61E+0  8.64E+0    34
   10195   980.60  4.86E+0  6.63E+0  8.63E+0    34
   10200   980.12  3.91E+0  5.85E+0  8.28E+0    33
   10205   979.64  3.51E+0  5.58E+0  8.24E+0    34
   10210   979.16  3.60E+0  5.68E+0  8.27E+0    35
   10215   978.68  3.35E+0  5.31E+0  7.90E+0    35
   10220   978.21  3.17E+0  4.94E+0  7.33E+0    34
   10225   977.73  3.62E+0  5.13E+0  6.98E+0    35
   10230   977.25  3.40E+0  4.80E+0  6.60E+0    36
   10235   976.77  3.11E+0  4.45E+0  6.22E+0    38
   10240   976.29  3.18E+0  4.35E+0  5.85E+0    38
   10245   975.82  3.02E+0  4.11E+0  5.55E+0    41
   10250   975.34  3.30E+0  4.24E+0  5.46E+0    45
   10255   974.87  3.59E+0  4.40E+0  5.36E+0    49
   10260   974.39  4.16E+0  4.73E+0  5.33E+0    53
   10265   973.92  4.29E+0  4.76E+0  5.24E+0    56
   10270   973.44  3.86E+0  4.43E+0  5.03E+0    56
   10275   972.97  3.49E+0  4.13E+0  4.82E+0    56
   10280   972.50  3.32E+0  3.96E+0  4.67E+0    57
   10285   972.02  3.69E+0  4.23E+0  4.80E+0    57
   10290   971.55  4.19E+0  5.12E+0  6.21E+0    56
   10295   971.08  6.35E+0  7.06E+0  7.82E+0    55
   10300   970.61  7.26E+0  7.42E+0  7.58E+0    53
   10305   970.14  4.62E+0  5.57E+0  6.71E+0    50
   10310   969.67  3.61E+0  4.52E+0  5.66E+0    52
   10315   969.20  3.74E+0  4.11E+0  4.52E+0    56
   10320   968.73  3.51E+0  3.63E+0  3.76E+0    67
   10325   968.26  2.98E+0  3.14E+0  3.32E+0    85
   10330   967.79  2.93E+0  2.96E+0  2.99E+0    95
   10335   967.32  3.12E+0  2.95E+0  2.80E+0   101
   10340   966.85  3.39E+0  3.01E+0  2.67E+0   103
   10345   966.39  3.32E+0  2.98E+0  2.67E+0   100
   10350   965.92  3.25E+0  2.97E+0  2.71E+0    98
   10355   965.45  3.13E+0  2.98E+0  2.84E+0    98
   10360   964.99  2.92E+0  2.92E+0  2.91E+0    98
   10365   964.52  2.43E+0  2.55E+0  2.68E+0    95
   10370   964.06  2.30E+0  2.37E+0  2.45E+0    91
   10375   963.59  2.49E+0  2.47E+0  2.46E+0    89
   10380   963.13  2.12E+0  2.32E+0  2.54E+0    87
   10385   962.66  1.80E+0  2.13E+0  2.51E+0    82
   10390   962.20  1.55E+0  1.94E+0  2.42E+0    77
   10395   961.74  1.23E+0  1.64E+0  2.19E+0    77
   10400   961.27  1.08E+0  1.41E+0  1.85E+0    81
   10405   960.81  1.03E+0  1.28E+0  1.59E+0    82
   10410   960.35  8.52E-1  1.10E+0  1.42E+0    79
   10415   959.89  7.41E-1  9.76E-1  1.29E+0    77
   10420   959.43  7.34E-1  9.38E-1  1.20E+0    77
   10425   958.97  6.07E-1  8.21E-1  1.11E+0    77
   10430   958.51  5.25E-1  7.29E-1  1.01E+0    74
   10435   958.05  4.57E-1  6.50E-1  9.23E-1    73
   10440   957.59  5.29E-1  6.90E-1  9.01E-1    74
   10445   957.13  6.02E-1  7.33E-1  8.93E-1    77
   10450   956.68  4.88E-1  6.22E-1  7.93E-1    90
   10455   956.22  4.04E-1  5.07E-1  6.35E-1   107
   10460   955.76  3.76E-1  4.48E-1  5.34E-1   117
   10465   955.30  3.30E-1  3.97E-1  4.78E-1   123
   10470   954.85  3.14E-1  3.65E-1  4.25E-1   129
   10475   954.39  2.90E-1  3.30E-1  3.76E-1   137
   10480   953.94  2.52E-1  2.91E-1  3.37E-1   143
   10485   953.48  2.65E-1  2.90E-1  3.18E-1   147
   10490   953.03  2.73E-1  2.89E-1  3.06E-1   149
   10495   952.57  2.66E-1  2.86E-1  3.07E-1   148
   10500   952.12  4.22E-1  3.65E-1  3.16E-1   146
   10505   951.67  6.28E-1  4.73E-1  3.57E-1   138
   10510   951.21  5.01E-1  4.52E-1  4.08E-1   129
   10515   950.76  3.53E-1  3.63E-1  3.73E-1   136
   10520   950.31  2.68E-1  2.58E-1  2.49E-1   165
   10525   949.86  1.92E-1  1.81E-1  1.71E-1   192
   10530   949.41  1.67E-1  1.59E-1  1.52E-1   201
   10535   948.96  2.17E-1  1.83E-1  1.55E-1   199
   10540   948.51  2.12E-1  1.99E-1  1.86E-1   184
   10545   948.06  4.35E-1  3.05E-1  2.13E-1   172
   10550   947.61  5.58E-1  3.33E-1  1.99E-1   177
   10555   947.16  3.19E-1  2.30E-1  1.65E-1   192
   10560   946.71  2.68E-1  1.87E-1  1.30E-1   214
   10565   946.26  1.85E-1  1.31E-1  9.32E-2   246
   10570   945.81  1.37E-1  9.88E-2  7.11E-2   272
   10575   945.37  1.30E-1  9.15E-2  6.47E-2   281
   10580   944.92  1.23E-1  8.70E-2  6.15E-2   286
   10585   944.47  1.12E-1  8.25E-2  6.10E-2   286
   10590   944.03  1.03E-1  7.85E-2  6.01E-2   287
   10595   943.58  9.10E-2  7.18E-2  5.67E-2   293
   10600   943.14  1.01E-1  7.26E-2  5.21E-2   301
   10605   942.69  7.18E-2  5.85E-2  4.76E-2   310
   10610   942.25  5.73E-2  4.96E-2  4.30E-2   321
   10615   941.80  4.60E-2  4.23E-2  3.89E-2   331
   10620   941.36  4.37E-2  3.92E-2  3.52E-2   341
   10625   940.92  3.72E-2  3.35E-2  3.02E-2   357
   10630   940.48  3.08E-2  2.84E-2  2.61E-2   372
   10635   940.03  2.49E-2  2.28E-2  2.09E-2   394
   10640   939.59  2.15E-2  1.96E-2  1.78E-2   408
   10645   939.15  2.03E-2  1.84E-2  1.67E-2   414
   10650   938.71  1.95E-2  1.76E-2  1.58E-2   418
   10655   938.27  2.34E-2  2.10E-2  1.88E-2   401
   10660   937.83  2.86E-2  2.55E-2  2.27E-2   381
   10665   937.39  2.46E-2  2.17E-2  1.92E-2   397
   10670   936.95  2.00E-2  1.75E-2  1.54E-2   416
   10675   936.51  2.48E-2  2.16E-2  1.89E-2   397
   10680   936.07  2.70E-2  2.35E-2  2.04E-2   388
   10685   935.63  2.16E-2  1.86E-2  1.61E-2   410
   10690   935.20  2.52E-2  2.16E-2  1.85E-2   397
   10695   934.76  2.91E-2  2.48E-2  2.12E-2   382
   10700   934.32  2.88E-2  2.44E-2  2.06E-2   383
   10705   933.89  3.67E-2  3.09E-2  2.60E-2   360
   10710   933.45  4.40E-2  3.68E-2  3.08E-2   341
   10715   933.02  5.01E-2  4.16E-2  3.46E-2   329
   10720   932.58  5.48E-2  4.53E-2  3.74E-2   319
   10725   932.15  5.47E-2  4.49E-2  3.68E-2   320
   10730   931.71  5.27E-2  4.29E-2  3.50E-2   325
   10735   931.28  5.48E-2  4.44E-2  3.59E-2   322
   10740   930.84  6.13E-2  4.93E-2  3.96E-2   311
   10745   930.41  7.68E-2  6.13E-2  4.89E-2   289
   10750   929.98  8.40E-2  6.66E-2  5.28E-2   280
   10755   929.55  7.65E-2  6.02E-2  4.73E-2   290
   10760   929.11  8.07E-2  6.36E-2  5.02E-2   284
   10765   928.68  8.59E-2  7.23E-2  6.08E-2   264
   10770   928.25  9.97E-2  8.57E-2  7.36E-2   245
   10775   927.82  1.40E-1  1.06E-1  8.07E-2   235
   10780   927.39  1.32E-1  1.04E-1  8.15E-2   234
   10785   926.96  1.29E-1  1.06E-1  8.77E-2   227
   10790   926.53  1.72E-1  1.35E-1  1.06E-1   209
   10795   926.10  1.79E-1  1.50E-1  1.25E-1   194
   10800   925.67  1.94E-1  1.61E-1  1.33E-1   189
   10805   925.24  1.70E-1  1.51E-1  1.34E-1   188
   10810   924.82  1.54E-1  1.47E-1  1.40E-1   184
   10815   924.39  2.05E-1  1.77E-1  1.53E-1   177
   10820   923.96  2.22E-1  1.93E-1  1.69E-1   169
   10825   923.53  2.26E-1  2.08E-1  1.91E-1   159
   10830   923.11  2.49E-1  2.32E-1  2.16E-1   150
   10835   922.68  3.02E-1  2.71E-1  2.44E-1   142
   10840   922.26  3.00E-1  2.86E-1  2.73E-1   134
   10845   921.83  3.06E-1  3.03E-1  3.00E-1   128
   10850   921.41  3.74E-1  3.48E-1  3.25E-1   123
   10855   920.98  3.86E-1  3.67E-1  3.49E-1   119
   10860   920.56  3.88E-1  3.80E-1  3.72E-1   115
   10865   920.13  4.50E-1  4.20E-1  3.93E-1   112
   10870   919.71  5.38E-1  4.68E-1  4.07E-1   110
   10875   919.29  4.96E-1  4.55E-1  4.17E-1   108
   10880   918.87  5.41E-1  4.83E-1  4.31E-1   106
   10885   918.44  5.76E-1  5.10E-1  4.52E-1   104
   10890   918.02  5.10E-1  5.00E-1  4.90E-1   100
   10895   917.60  5.78E-1  5.76E-1  5.73E-1    93
   10900   917.18  6.97E-1  6.84E-1  6.71E-1    86
   10905   916.76  7.66E-1  7.57E-1  7.49E-1    81
   10910   916.34  9.17E-1  8.61E-1  8.09E-1    79
   10915   915.92  1.00E+0  9.24E-1  8.52E-1    76
   10920   915.50  8.18E-1  8.43E-1  8.69E-1    76
   10925   915.08  8.75E-1  8.78E-1  8.82E-1    75
   10930   914.66  9.23E-1  9.13E-1  9.03E-1    74
   10935   914.24  9.44E-1  9.37E-1  9.30E-1    73
   10940   913.83  9.60E-1  9.80E-1  1.00E+0    71
   10945   913.41  1.14E+0  1.13E+0  1.12E+0    67
   10950   912.99  1.29E+0  1.25E+0  1.21E+0    64
   10955   912.57  1.21E+0  1.23E+0  1.25E+0    63
   10960   912.16  1.05E+0  1.15E+0  1.26E+0    62
   10965   911.74  1.04E+0  1.17E+0  1.33E+0    56
   10970   911.33  1.09E+0  1.25E+0  1.44E+0    46
   10975   910.91  1.03E+0  1.25E+0  1.53E+0    39
   10980   910.50  8.59E-1  1.17E+0  1.59E+0    37
   10985   910.08  8.61E-1  1.19E+0  1.66E+0    37
   10990   909.67  8.58E-1  1.22E+0  1.74E+0    41
   10995   909.25  8.42E-1  1.25E+0  1.84E+0    47
   11000   908.84  1.02E+0  1.44E+0  2.02E+0    48
   11005   908.43  1.16E+0  1.63E+0  2.30E+0    44
   11010   908.02  1.20E+0  1.75E+0  2.57E+0    41
   11015   907.60  1.29E+0  1.90E+0  2.80E+0    44
   11020   907.19  1.42E+0  2.07E+0  3.01E+0    48
   11025   906.78  1.55E+0  2.27E+0  3.32E+0    47
   11030   906.37  1.80E+0  2.59E+0  3.73E+0    41
   11035   905.96  2.01E+0  2.88E+0  4.12E+0    37
   11040   905.55  2.10E+0  3.07E+0  4.48E+0    35
   11045   905.14  2.34E+0  3.36E+0  4.84E+0    34
   11050   904.73  3.01E+0  3.97E+0  5.24E+0    33
   11055   904.32  3.31E+0  4.33E+0  5.67E+0    31
   11060   903.91  3.08E+0  4.35E+0  6.14E+0    31
   11065   903.50  3.57E+0  4.89E+0  6.70E+0    31
   11070   903.09  4.48E+0  5.72E+0  7.30E+0    31
   11075   902.69  5.45E+0  6.61E+0  8.02E+0    29
   11080   902.28  5.55E+0  6.99E+0  8.81E+0    27
   11085   901.87  5.81E+0  7.47E+0  9.60E+0    25
   11090   901.47  6.80E+0  8.40E+0  1.04E+1    24
   11095   901.06  7.79E+0  9.31E+0  1.11E+1    23
   11100   900.65  8.38E+0  9.95E+0  1.18E+1    22
   11105   900.25  9.39E+0  1.08E+1  1.24E+1    22
   11110   899.84  1.10E+1  1.20E+1  1.30E+1    21
   11115   899.44  1.27E+1  1.31E+1  1.36E+1    22
   11120   899.03  1.45E+1  1.42E+1  1.39E+1    22
   11125   898.63  1.50E+1  1.43E+1  1.36E+1    22
   11130   898.23  1.31E+1  1.30E+1  1.30E+1    20
   11135   897.82  1.29E+1  1.30E+1  1.31E+1    20
   11140   897.42  1.22E+1  1.30E+1  1.39E+1    19
   11145   897.02  1.20E+1  1.34E+1  1.50E+1    18
   11150   896.61  1.57E+1  1.62E+1  1.66E+1    18
   11155   896.21  2.01E+1  1.93E+1  1.85E+1    17
   11160   895.81  2.76E+1  2.35E+1  2.00E+1    16
   11165   895.41  2.76E+1  2.41E+1  2.10E+1    16
   11170   895.01  2.41E+1  2.29E+1  2.18E+1    16
   11175   894.61  2.50E+1  2.35E+1  2.22E+1    16
   11180   894.21  2.63E+1  2.42E+1  2.23E+1    16
   11185   893.81  2.92E+1  2.54E+1  2.20E+1    16
   11190   893.41  2.64E+1  2.37E+1  2.12E+1    16
   11195   893.01  2.07E+1  2.07E+1  2.06E+1    16
   11200   892.61  2.14E+1  2.09E+1  2.04E+1    17
   11205   892.21  2.12E+1  2.08E+1  2.03E+1    17
   11210   891.82  1.86E+1  1.95E+1  2.05E+1    17
   11215   891.42  2.27E+1  2.19E+1  2.10E+1    16
   11220   891.02  2.49E+1  2.31E+1  2.14E+1    16
   11225   890.62  2.33E+1  2.23E+1  2.14E+1    17
   11230   890.23  2.50E+1  2.30E+1  2.12E+1    18
   11235   889.83  2.03E+1  2.11E+1  2.19E+1    18
   11240   889.44  2.29E+1  2.32E+1  2.35E+1    17
   11245   889.04  2.43E+1  2.48E+1  2.52E+1    16
   11250   888.64  2.17E+1  2.42E+1  2.70E+1    16
   11255   888.25  2.79E+1  2.84E+1  2.89E+1    17
   11260   887.86  3.42E+1  3.21E+1  3.02E+1    16
   11265   887.46  4.03E+1  3.53E+1  3.09E+1    16
   11270   887.07  4.68E+1  3.79E+1  3.06E+1    16
   11275   886.67  4.13E+1  3.35E+1  2.72E+1    17
   11280   886.28  2.44E+1  2.32E+1  2.20E+1    19
   11285   885.89  1.74E+1  1.78E+1  1.83E+1    20
   11290   885.50  1.61E+1  1.64E+1  1.67E+1    21
   11295   885.10  1.49E+1  1.54E+1  1.59E+1    23
   11300   884.71  1.48E+1  1.58E+1  1.69E+1    24
   11305   884.32  1.90E+1  1.91E+1  1.92E+1    26
   11310   883.93  2.53E+1  2.31E+1  2.11E+1    27
   11315   883.54  2.92E+1  2.57E+1  2.26E+1    26
   11320   883.15  2.87E+1  2.61E+1  2.38E+1    24
   11325   882.76  2.43E+1  2.44E+1  2.44E+1    23
   11330   882.37  2.25E+1  2.35E+1  2.46E+1    22
   11335   881.98  1.94E+1  2.16E+1  2.41E+1    21
   11340   881.59  1.56E+1  1.86E+1  2.23E+1    19
   11345   881.20  9.25E+0  1.36E+1  2.01E+1    18
   11350   880.82  5.73E+0  1.01E+1  1.80E+1    17
   11355   880.43  5.08E+0  9.01E+0  1.60E+1    18
   11360   880.04  4.41E+0  7.84E+0  1.39E+1    18
   11365   879.65  3.09E+0  6.02E+0  1.17E+1    20
   11370   879.27  2.15E+0  4.50E+0  9.45E+0    22
   11375   878.88  1.78E+0  3.64E+0  7.43E+0    25
   11380   878.49  1.57E+0  3.00E+0  5.75E+0    31
   11385   878.11  1.51E+0  2.53E+0  4.25E+0    37
   11390   877.72  1.50E+0  2.27E+0  3.42E+0    42
   11395   877.34  1.38E+0  2.04E+0  3.02E+0    46
   11400   876.95  1.29E+0  1.87E+0  2.72E+0    49
   11405   876.57  1.26E+0  1.81E+0  2.60E+0    49
   11410   876.18  1.21E+0  1.74E+0  2.52E+0    50
   11415   875.80  1.20E+0  1.71E+0  2.44E+0    54
   11420   875.42  1.18E+0  1.67E+0  2.36E+0    62
   11425   875.03  1.09E+0  1.58E+0  2.29E+0    68
   11430   874.65  1.13E+0  1.59E+0  2.24E+0    70
   11435   874.27  1.23E+0  1.64E+0  2.20E+0    70
   11440   873.89  1.22E+0  1.62E+0  2.15E+0    72
   11445   873.50  1.11E+0  1.52E+0  2.07E+0    75
   11450   873.12  1.09E+0  1.48E+0  2.01E+0    78
   11455   872.74  1.22E+0  1.56E+0  2.00E+0    80
   11460   872.36  1.25E+0  1.60E+0  2.04E+0    80
   11465   871.98  1.27E+0  1.63E+0  2.09E+0    81
   11470   871.60  1.36E+0  1.72E+0  2.19E+0    81
   11475   871.22  1.53E+0  1.88E+0  2.30E+0    82
   11480   870.84  1.63E+0  1.99E+0  2.42E+0    82
   11485   870.46  1.82E+0  2.15E+0  2.53E+0    81
   11490   870.08  1.92E+0  2.25E+0  2.63E+0    80
   11495   869.70  1.98E+0  2.29E+0  2.64E+0    77
   11500   869.33  2.12E+0  2.35E+0  2.61E+0    74
   11505   868.95  2.10E+0  2.35E+0  2.64E+0    72
   11510   868.57  2.23E+0  2.50E+0  2.79E+0    70
   11515   868.19  2.38E+0  2.66E+0  2.98E+0    68
   11520   867.82  2.57E+0  2.84E+0  3.13E+0    62
   11525   867.44  3.01E+0  3.13E+0  3.25E+0    51
   11530   867.06  3.52E+0  3.44E+0  3.37E+0    42
   11535   866.69  3.67E+0  3.58E+0  3.48E+0    41
   11540   866.31  3.96E+0  3.77E+0  3.60E+0    43
   11545   865.94  3.65E+0  3.70E+0  3.75E+0    45
   11550   865.56  4.10E+0  4.04E+0  3.97E+0    44
   11555   865.19  4.58E+0  4.39E+0  4.21E+0    44
   11560   864.81  4.39E+0  4.34E+0  4.29E+0    44
   11565   864.44  4.47E+0  4.34E+0  4.22E+0    44
   11570   864.07  4.54E+0  4.34E+0  4.15E+0    44
   11575   863.69  4.97E+0  4.50E+0  4.08E+0    43
   11580   863.32  4.77E+0  4.37E+0  4.00E+0    42
   11585   862.95  4.50E+0  4.26E+0  4.04E+0    40
   11590   862.58  4.57E+0  4.44E+0  4.30E+0    38
   11595   862.20  5.01E+0  4.81E+0  4.61E+0    35
   11600   861.83  4.91E+0  4.86E+0  4.81E+0    34
   11605   861.46  4.28E+0  4.56E+0  4.87E+0    35
   11610   861.09  3.88E+0  4.36E+0  4.90E+0    36
   11615   860.72  3.56E+0  4.14E+0  4.81E+0    37
   11620   860.35  3.34E+0  3.94E+0  4.64E+0    38
   11625   859.98  2.96E+0  3.62E+0  4.42E+0    38
   11630   859.61  2.49E+0  3.19E+0  4.07E+0    39
   11635   859.24  2.37E+0  2.96E+0  3.69E+0    40
   11640   858.87  2.21E+0  2.74E+0  3.41E+0    42
   11645   858.50  2.19E+0  2.67E+0  3.26E+0    45
   11650   858.13  2.20E+0  2.62E+0  3.12E+0    48
   11655   857.77  2.04E+0  2.43E+0  2.89E+0    47
   11660   857.40  1.89E+0  2.22E+0  2.59E+0    42
   11665   857.03  1.72E+0  1.99E+0  2.30E+0    39
   11670   856.66  1.45E+0  1.72E+0  2.04E+0    38
   11675   856.30  1.30E+0  1.52E+0  1.79E+0    38
   11680   855.93  1.21E+0  1.38E+0  1.58E+0    39
   11685   855.56  1.02E+0  1.21E+0  1.43E+0    41
   11690   855.20  9.49E-1  1.11E+0  1.29E+0    44
   11695   854.83  1.02E+0  1.10E+0  1.18E+0    46
   11700   854.47  1.00E+0  1.05E+0  1.09E+0    48
   11705   854.10  8.06E-1  9.02E-1  1.01E+0    49
   11710   853.74  7.32E-1  8.25E-1  9.29E-1    51
   11715   853.37  7.09E-1  7.78E-1  8.54E-1    53
   11720   853.01  6.03E-1  6.87E-1  7.82E-1    55
   11725   852.64  4.78E-1  5.86E-1  7.18E-1    57
   11730   852.28  4.61E-1  5.50E-1  6.57E-1    59
   11735   851.92  4.04E-1  4.90E-1  5.94E-1    62
   11740   851.55  3.45E-1  4.28E-1  5.30E-1    65
   11745   851.19  3.56E-1  4.07E-1  4.67E-1    69
   11750   850.83  3.26E-1  3.68E-1  4.16E-1    73
   11755   850.47  2.89E-1  3.31E-1  3.79E-1    76
   11760   850.11  3.10E-1  3.27E-1  3.45E-1    79
   11765   849.75  2.60E-1  2.87E-1  3.17E-1    82
   11770   849.38  2.18E-1  2.54E-1  2.95E-1    85
   11775   849.02  2.26E-1  2.51E-1  2.79E-1    87
   11780   848.66  2.45E-1  2.65E-1  2.87E-1    85
   11785   848.30  3.10E-1  3.07E-1  3.04E-1    83
   11790   847.94  3.00E-1  3.08E-1  3.17E-1    81
   11795   847.58  3.16E-1  3.19E-1  3.22E-1    80
   11800   847.22  3.48E-1  3.37E-1  3.26E-1    80
   11805   846.87  2.97E-1  3.13E-1  3.29E-1    79
   11810   846.51  3.21E-1  3.27E-1  3.33E-1    79
   11815   846.15  3.01E-1  3.19E-1  3.37E-1    78
   11820   845.79  3.20E-1  3.33E-1  3.45E-1    77
   11825   845.43  3.60E-1  3.58E-1  3.56E-1    76
   11830   845.08  4.31E-1  4.00E-1  3.71E-1    74
   11835   844.72  5.25E-1  4.61E-1  4.05E-1    71
   11840   844.36  6.35E-1  5.34E-1  4.50E-1    67
   11845   844.01  6.97E-1  5.74E-1  4.72E-1    66
   11850   843.65  6.02E-1  5.11E-1  4.33E-1    68
   11855   843.29  5.00E-1  4.32E-1  3.73E-1    73
   11860   842.94  4.61E-1  4.13E-1  3.71E-1    73
   11865   842.58  4.72E-1  4.75E-1  4.78E-1    66
   11870   842.23  7.27E-1  6.65E-1  6.07E-1    58
   11875   841.87  1.03E+0  8.36E-1  6.78E-1    55
   11880   841.52  1.02E+0  8.26E-1  6.72E-1    55
   11885   841.17  1.09E+0  8.46E-1  6.54E-1    55
   11890   840.81  8.96E-1  7.33E-1  6.00E-1    58
   11895   840.46  7.35E-1  6.14E-1  5.14E-1    62
   11900   840.11  6.39E-1  5.28E-1  4.37E-1    67
   11905   839.75  5.98E-1  5.07E-1  4.30E-1    67
   11910   839.40  6.27E-1  5.42E-1  4.69E-1    64
   11915   839.05  7.35E-1  6.10E-1  5.05E-1    62
   11920   838.70  8.38E-1  6.63E-1  5.24E-1    60
   11925   838.34  8.23E-1  6.64E-1  5.35E-1    60
   11930   837.99  6.87E-1  6.09E-1  5.40E-1    59
   11935   837.64  4.80E-1  5.04E-1  5.29E-1    60
   11940   837.29  5.09E-1  5.11E-1  5.12E-1    60
   11945   836.94  3.75E-1  4.33E-1  4.99E-1    61
   11950   836.59  3.97E-1  4.42E-1  4.92E-1    61
   11955   836.24  3.22E-1  3.96E-1  4.86E-1    62
   11960   835.89  2.84E-1  3.63E-1  4.63E-1    63
   11965   835.54  2.60E-1  3.29E-1  4.16E-1    66
   11970   835.19  1.80E-1  2.57E-1  3.65E-1    70
   11975   834.84  1.61E-1  2.25E-1  3.13E-1    75
   11980   834.50  1.08E-1  1.68E-1  2.59E-1    82
   11985   834.15  7.65E-2  1.26E-1  2.06E-1    91
   11990   833.80  5.74E-2  9.65E-2  1.62E-1   101
   11995   833.45  4.62E-2  7.65E-2  1.27E-1   113
   12000   833.10  3.20E-2  5.47E-2  9.36E-2   128
   12005   832.76  2.52E-2  4.32E-2  7.42E-2   139
   12010   832.41  2.08E-2  3.54E-2  6.04E-2   151
   12015   832.06  1.69E-2  2.87E-2  4.88E-2   162
   12020   831.72  1.40E-2  2.37E-2  4.01E-2   173
   12025   831.37  1.16E-2  1.95E-2  3.28E-2   184
   12030   831.03  1.16E-2  1.94E-2  3.23E-2   185
   12035   830.68  1.22E-2  2.02E-2  3.33E-2   182
   12040   830.34  1.24E-2  2.03E-2  3.32E-2   182
   12045   829.99  1.17E-2  1.90E-2  3.10E-2   186
   12050   829.65  1.17E-2  1.89E-2  3.04E-2   186
   12055   829.30  1.28E-2  2.04E-2  3.25E-2   182
   12060   828.96  1.39E-2  2.20E-2  3.47E-2   178
   12065   828.62  1.37E-2  2.14E-2  3.35E-2   179
   12070   828.27  1.32E-2  2.04E-2  3.16E-2   182
   12075   827.93  1.30E-2  1.99E-2  3.06E-2   184
   12080   827.59  1.53E-2  2.32E-2  3.51E-2   176
   12085   827.24  1.88E-2  2.81E-2  4.21E-2   166
   12090   826.90  1.60E-2  2.38E-2  3.53E-2   175
   12095   826.56  1.47E-2  2.16E-2  3.18E-2   180
   12100   826.22  1.49E-2  2.17E-2  3.17E-2   180
   12105   825.88  1.57E-2  2.26E-2  3.26E-2   178
   12110   825.54  1.68E-2  2.39E-2  3.40E-2   175
   12115   825.20  1.50E-2  2.11E-2  2.98E-2   182
   12120   824.86  1.51E-2  2.10E-2  2.92E-2   183
   12125   824.52  1.78E-2  2.45E-2  3.36E-2   175
   12130   824.18  1.78E-2  2.42E-2  3.28E-2   175
   12135   823.84  1.84E-2  2.46E-2  3.30E-2   175
   12140   823.50  1.81E-2  2.40E-2  3.17E-2   177
   12145   823.16  1.99E-2  2.60E-2  3.39E-2   173
   12150   822.82  2.30E-2  2.96E-2  3.82E-2   166
   12155   822.48  2.15E-2  2.74E-2  3.48E-2   171
   12160   822.14  2.05E-2  2.57E-2  3.22E-2   175
   12165   821.80  2.48E-2  3.06E-2  3.78E-2   165
   12170   821.47  2.48E-2  3.02E-2  3.67E-2   166
   12175   821.13  2.91E-2  3.48E-2  4.17E-2   159
   12180   820.79  3.19E-2  3.75E-2  4.42E-2   156
   12185   820.46  3.24E-2  3.75E-2  4.35E-2   156
   12190   820.12  3.11E-2  3.59E-2  4.14E-2   158
   12195   819.78  3.21E-2  3.87E-2  4.67E-2   152
   12200   819.45  4.16E-2  4.72E-2  5.35E-2   144
   12205   819.11  4.47E-2  5.11E-2  5.84E-2   139
   12210   818.78  4.04E-2  4.81E-2  5.72E-2   140
   12215   818.44  4.11E-2  4.70E-2  5.38E-2   143
   12220   818.11  5.37E-2  5.30E-2  5.24E-2   144
   12225   817.77  5.72E-2  5.71E-2  5.71E-2   139
   12230   817.44  6.39E-2  6.39E-2  6.39E-2   133
   12235   817.10  6.95E-2  7.04E-2  7.13E-2   127
   12240   816.77  7.28E-2  7.67E-2  8.08E-2   121
   12245   816.44  7.63E-2  8.33E-2  9.10E-2   115
   12250   816.10  8.55E-2  9.33E-2  1.02E-1   109
   12255   815.77  9.14E-2  1.02E-1  1.15E-1   104
   12260   815.44  9.87E-2  1.12E-1  1.28E-1    99
   12265   815.10  1.16E-1  1.28E-1  1.40E-1    95
   12270   814.77  1.27E-1  1.36E-1  1.45E-1    93
   12275   814.44  1.23E-1  1.35E-1  1.49E-1    92
   12280   814.11  1.26E-1  1.40E-1  1.57E-1    90
   12285   813.78  1.39E-1  1.58E-1  1.81E-1    84
   12290   813.45  1.60E-1  1.83E-1  2.09E-1    78
   12295   813.12  1.82E-1  2.07E-1  2.34E-1    74
   12300   812.78  1.91E-1  2.17E-1  2.47E-1    72
   12305   812.45  1.99E-1  2.25E-1  2.56E-1    71
   12310   812.12  2.08E-1  2.36E-1  2.66E-1    69
   12315   811.79  2.19E-1  2.50E-1  2.85E-1    67
   12320   811.47  2.47E-1  2.75E-1  3.07E-1    65
   12325   811.14  2.92E-1  3.10E-1  3.29E-1    63
   12330   810.81  3.16E-1  3.31E-1  3.47E-1    61
   12335   810.48  3.20E-1  3.41E-1  3.64E-1    59
   12340   810.15  3.31E-1  3.54E-1  3.79E-1    58
   12345   809.82  3.26E-1  3.55E-1  3.86E-1    57
   12350   809.49  3.62E-1  3.76E-1  3.89E-1    57
   12355   809.17  4.05E-1  3.99E-1  3.93E-1    57
   12360   808.84  4.01E-1  4.01E-1  4.00E-1    56
   12365   808.51  3.52E-1  3.79E-1  4.08E-1    55
   12370   808.19  3.59E-1  3.87E-1  4.19E-1    55
   12375   807.86  3.92E-1  4.15E-1  4.39E-1    53
   12380   807.53  4.01E-1  4.33E-1  4.66E-1    52
   12385   807.21  4.07E-1  4.48E-1  4.93E-1    50
   12390   806.88  4.11E-1  4.61E-1  5.16E-1    49
   12395   806.56  4.62E-1  4.99E-1  5.38E-1    48
   12400   806.23  5.01E-1  5.30E-1  5.60E-1    47
   12405   805.90  5.33E-1  5.57E-1  5.81E-1    46
   12410   805.58  5.59E-1  5.80E-1  6.02E-1    45
   12415   805.26  5.79E-1  6.01E-1  6.24E-1    44
   12420   804.93  5.71E-1  6.10E-1  6.52E-1    43
   12425   804.61  6.10E-1  6.46E-1  6.84E-1    42
   12430   804.28  6.81E-1  6.98E-1  7.14E-1    41
   12435   803.96  7.17E-1  7.25E-1  7.33E-1    41
   12440   803.64  6.75E-1  7.09E-1  7.44E-1    40
   12445   803.31  6.84E-1  7.19E-1  7.57E-1    40
   12450   802.99  7.21E-1  7.48E-1  7.75E-1    39
   12455   802.67  7.51E-1  7.75E-1  7.99E-1    39
   12460   802.35  7.59E-1  7.90E-1  8.22E-1    38
   12465   802.03  8.17E-1  8.26E-1  8.34E-1    38
   12470   801.70  9.09E-1  8.73E-1  8.38E-1    38
   12475   801.38  8.80E-1  8.60E-1  8.41E-1    37
   12480   801.06  7.94E-1  8.25E-1  8.58E-1    37
   12485   800.74  8.20E-1  8.53E-1  8.88E-1    36
   12490   800.42  9.73E-1  9.46E-1  9.20E-1    36
   12495   800.10  9.84E-1  9.69E-1  9.54E-1    35
   12500   799.78  9.22E-1  9.55E-1  9.90E-1    34
   12505   799.46  9.91E-1  1.01E+0  1.03E+0    34
   12510   799.14  1.06E+0  1.06E+0  1.06E+0    33
   12515   798.82  1.10E+0  1.09E+0  1.08E+0    33
   12520   798.50  1.03E+0  1.06E+0  1.10E+0    32
   12525   798.18  1.08E+0  1.10E+0  1.11E+0    32
   12530   797.87  1.13E+0  1.12E+0  1.10E+0    32
   12535   797.55  1.11E+0  1.10E+0  1.09E+0    32
   12540   797.23  1.15E+0  1.11E+0  1.07E+0    33
   12545   796.91  1.16E+0  1.09E+0  1.03E+0    33
   12550   796.59  1.07E+0  1.03E+0  9.82E-1    34
   12555   796.28  1.03E+0  9.84E-1  9.41E-1    34
   12560   795.96  1.01E+0  9.68E-1  9.33E-1    34
   12565   795.64  1.06E+0  9.98E-1  9.42E-1    34
   12570   795.33  1.04E+0  9.94E-1  9.50E-1    34
   12575   795.01  1.04E+0  9.84E-1  9.35E-1    34
   12580   794.69  1.03E+0  9.65E-1  9.03E-1    35
   12585   794.38  9.72E-1  9.20E-1  8.71E-1    35
   12590   794.06  9.17E-1  8.90E-1  8.63E-1    35
   12595   793.75  8.34E-1  8.58E-1  8.83E-1    35
   12600   793.43  8.46E-1  8.74E-1  9.04E-1    34
   12605   793.12  9.19E-1  9.19E-1  9.19E-1    34
   12610   792.80  9.18E-1  9.21E-1  9.23E-1    34
   12615   792.49  8.40E-1  8.82E-1  9.27E-1    34
   12620   792.18  8.03E-1  8.59E-1  9.19E-1    34
   12625   791.86  7.32E-1  8.04E-1  8.83E-1    34
   12630   791.55  6.93E-1  7.63E-1  8.41E-1    35
   12635   791.23  6.46E-1  7.20E-1  8.02E-1    36
   12640   790.92  6.15E-1  6.90E-1  7.76E-1    36
   12645   790.61  6.15E-1  6.81E-1  7.55E-1    36
   12650   790.30  6.02E-1  6.65E-1  7.35E-1    37
   12655   789.98  5.69E-1  6.43E-1  7.27E-1    37
   12660   789.67  5.86E-1  6.53E-1  7.27E-1    37
   12665   789.36  6.01E-1  6.61E-1  7.27E-1    37
   12670   789.05  5.82E-1  6.54E-1  7.35E-1    37
   12675   788.74  5.86E-1  6.63E-1  7.48E-1    36
   12680   788.43  6.01E-1  6.77E-1  7.62E-1    36
   12685   788.12  6.12E-1  6.86E-1  7.69E-1    35
   12690   787.81  6.46E-1  7.06E-1  7.71E-1    35
   12695   787.49  6.79E-1  7.24E-1  7.72E-1    35
   12700   787.18  6.93E-1  7.28E-1  7.65E-1    35
   12705   786.88  7.07E-1  7.26E-1  7.47E-1    36
   12710   786.57  7.41E-1  7.34E-1  7.28E-1    36
   12715   786.26  7.60E-1  7.36E-1  7.12E-1    36
   12720   785.95  7.37E-1  7.20E-1  7.04E-1    36
   12725   785.64  7.51E-1  7.24E-1  6.97E-1    36
   12730   785.33  6.93E-1  6.95E-1  6.97E-1    36
   12735   785.02  6.17E-1  6.68E-1  7.22E-1    36
   12740   784.71  6.84E-1  7.20E-1  7.57E-1    35
   12745   784.41  7.56E-1  7.72E-1  7.89E-1    34
   12750   784.10  9.55E-1  8.71E-1  7.94E-1    34
   12755   783.79  1.16E+0  9.50E-1  7.80E-1    34
   12760   783.48  1.03E+0  8.89E-1  7.65E-1    34
   12765   783.18  9.08E-1  8.12E-1  7.26E-1    35
   12770   782.87  8.30E-1  7.40E-1  6.59E-1    37
   12775   782.56  7.87E-1  6.81E-1  5.89E-1    39
   12780   782.26  8.01E-1  6.58E-1  5.40E-1    40
   12785   781.95  7.76E-1  6.44E-1  5.34E-1    40
   12790   781.65  8.03E-1  6.57E-1  5.37E-1    40
   12795   781.34  7.83E-1  6.50E-1  5.39E-1    40
   12800   781.04  7.71E-1  6.42E-1  5.35E-1    40
   12805   780.73  7.91E-1  6.47E-1  5.29E-1    40
   12810   780.43  7.27E-1  6.16E-1  5.22E-1    40
   12815   780.12  6.15E-1  5.59E-1  5.09E-1    41
   12820   779.82  5.72E-1  5.29E-1  4.90E-1    41
   12825   779.51  5.18E-1  4.94E-1  4.71E-1    42
   12830   779.21  4.50E-1  4.51E-1  4.52E-1    43
   12835   778.91  4.24E-1  4.27E-1  4.32E-1    44
   12840   778.60  4.05E-1  4.08E-1  4.11E-1    45
   12845   778.30  3.99E-1  3.94E-1  3.89E-1    46
   12850   778.00  3.87E-1  3.74E-1  3.62E-1    47
   12855   777.69  3.58E-1  3.45E-1  3.32E-1    49
   12860   777.39  3.52E-1  3.27E-1  3.04E-1    51
   12865   777.09  3.33E-1  3.11E-1  2.91E-1    52
   12870   776.79  3.15E-1  3.00E-1  2.86E-1    52
   12875   776.49  3.12E-1  2.96E-1  2.82E-1    52
   12880   776.18  3.14E-1  2.96E-1  2.79E-1    52
   12885   775.88  2.97E-1  2.88E-1  2.79E-1    52
   12890   775.58  2.82E-1  2.80E-1  2.79E-1    52
   12895   775.28  2.75E-1  2.76E-1  2.76E-1    52
   12900   774.98  2.49E-1  2.56E-1  2.64E-1    53
   12905   774.68  2.33E-1  2.42E-1  2.50E-1    55
   12910   774.38  2.31E-1  2.37E-1  2.43E-1    55
   12915   774.08  2.41E-1  2.47E-1  2.55E-1    54
   12920   773.78  2.67E-1  2.69E-1  2.70E-1    52
   12925   773.48  2.78E-1  2.80E-1  2.82E-1    51
   12930   773.18  2.89E-1  2.79E-1  2.70E-1    52
   12935   772.88  2.60E-1  2.52E-1  2.44E-1    55
   12940   772.58  2.16E-1  2.17E-1  2.18E-1    57
   12945   772.29  1.81E-1  1.89E-1  1.98E-1    60
   12950   771.99  1.63E-1  1.74E-1  1.85E-1    61
   12955   771.69  1.60E-1  1.67E-1  1.73E-1    63
   12960   771.39  1.55E-1  1.60E-1  1.64E-1    64
   12965   771.10  1.60E-1  1.62E-1  1.65E-1    64
   12970   770.80  1.62E-1  1.65E-1  1.68E-1    64
   12975   770.50  1.56E-1  1.63E-1  1.70E-1    63
   12980   770.20  1.39E-1  1.53E-1  1.68E-1    63
   12985   769.91  1.44E-1  1.52E-1  1.62E-1    64
   12990   769.61  1.42E-1  1.49E-1  1.56E-1    65
   12995   769.32  1.49E-1  1.50E-1  1.51E-1    66
   13000   769.02  1.56E-1  1.52E-1  1.47E-1    66
   13005   768.72  1.51E-1  1.48E-1  1.45E-1    67
   13010   768.43  1.39E-1  1.41E-1  1.42E-1    67
   13015   768.13  1.33E-1  1.38E-1  1.44E-1    67
   13020   767.84  1.38E-1  1.42E-1  1.47E-1    66
   13025   767.54  1.45E-1  1.47E-1  1.50E-1    65
   13030   767.25  1.71E-1  1.60E-1  1.50E-1    65
   13035   766.95  1.91E-1  1.68E-1  1.47E-1    65
   13040   766.66  1.70E-1  1.56E-1  1.44E-1    66
   13045   766.37  1.49E-1  1.44E-1  1.39E-1    67
   13050   766.07  1.40E-1  1.35E-1  1.31E-1    68
   13055   765.78  1.46E-1  1.34E-1  1.22E-1    70
   13060   765.49  1.53E-1  1.32E-1  1.14E-1    72
   13065   765.19  1.57E-1  1.31E-1  1.09E-1    73
   13070   764.90  1.53E-1  1.27E-1  1.06E-1    74
   13075   764.61  1.54E-1  1.26E-1  1.03E-1    75
   13080   764.32  1.55E-1  1.25E-1  1.01E-1    75
   13085   764.02  1.45E-1  1.18E-1  9.55E-2    77
   13090   763.73  1.34E-1  1.10E-1  8.95E-2    79
   13095   763.44  1.25E-1  1.03E-1  8.41E-2    81
   13100   763.15  1.18E-1  9.70E-2  7.99E-2    82
   13105   762.86  1.13E-1  9.39E-2  7.77E-2    83
   13110   762.57  1.11E-1  9.21E-2  7.66E-2    83
   13115   762.28  1.12E-1  9.34E-2  7.81E-2    82
   13120   761.99  1.12E-1  9.42E-2  7.91E-2    82
   13125   761.70  1.07E-1  9.05E-2  7.64E-2    83
   13130   761.41  9.76E-2  8.28E-2  7.02E-2    85
   13135   761.12  9.13E-2  7.78E-2  6.63E-2    87
   13140   760.83  8.78E-2  7.51E-2  6.43E-2    88
   13145   760.54  8.34E-2  7.17E-2  6.16E-2    89
   13150   760.25  6.86E-2  5.92E-2  5.11E-2    95
   13155   759.96  5.58E-2  4.84E-2  4.19E-2   102
   13160   759.67  5.37E-2  4.68E-2  4.08E-2   102
   13165   759.38  5.11E-2  4.46E-2  3.90E-2   104
   13170   759.09  4.76E-2  4.18E-2  3.67E-2   105
   13175   758.80  4.71E-2  4.15E-2  3.66E-2   105
   13180   758.52  4.27E-2  3.78E-2  3.35E-2   108
   13185   758.23  4.02E-2  3.58E-2  3.18E-2   110
   13190   757.94  4.15E-2  3.71E-2  3.31E-2   108
   13195   757.65  3.60E-2  3.23E-2  2.89E-2   112
   13200   757.37  3.22E-2  2.90E-2  2.61E-2   115
   13205   757.08  3.28E-2  2.96E-2  2.68E-2   114
   13210   756.79  3.02E-2  2.74E-2  2.48E-2   117
   13215   756.51  2.70E-2  2.46E-2  2.24E-2   120
   13220   756.22  2.60E-2  2.38E-2  2.17E-2   120
   13225   755.94  2.31E-2  2.12E-2  1.94E-2   123
   13230   755.65  2.29E-2  2.11E-2  1.95E-2   123
   13235   755.36  2.16E-2  2.00E-2  1.85E-2   124
   13240   755.08  2.01E-2  1.86E-2  1.73E-2   126
   13245   754.79  2.11E-2  1.97E-2  1.83E-2   124
   13250   754.51  2.00E-2  1.87E-2  1.75E-2   125
   13255   754.22  1.80E-2  1.69E-2  1.59E-2   128
   13260   753.94  1.77E-2  1.67E-2  1.57E-2   128
   13265   753.66  1.56E-2  1.48E-2  1.40E-2   131
   13270   753.37  1.63E-2  1.55E-2  1.47E-2   129
   13275   753.09  1.71E-2  1.63E-2  1.56E-2   127
   13280   752.80  1.93E-2  1.85E-2  1.77E-2   123
   13285   752.52  2.38E-2  2.29E-2  2.20E-2   117
   13290   752.24  2.58E-2  2.49E-2  2.40E-2   114
   13295   751.96  1.98E-2  1.91E-2  1.85E-2   121
   13300   751.67  1.78E-2  1.73E-2  1.68E-2   124
   13305   751.39  1.85E-2  1.80E-2  1.76E-2   122
   13310   751.11  1.86E-2  1.82E-2  1.78E-2   121
   13315   750.83  1.85E-2  1.81E-2  1.78E-2   121
   13320   750.54  1.97E-2  1.94E-2  1.91E-2   119
   13325   750.26  2.29E-2  2.26E-2  2.24E-2   114
   13330   749.98  2.70E-2  2.67E-2  2.65E-2   108
   13335   749.70  2.47E-2  2.45E-2  2.44E-2   111
   13340   749.42  1.99E-2  1.98E-2  1.98E-2   117
   13345   749.14  2.03E-2  2.03E-2  2.03E-2   116
   13350   748.86  2.01E-2  2.01E-2  2.02E-2   115
   13355   748.58  2.04E-2  2.05E-2  2.07E-2   115
   13360   748.30  2.36E-2  2.38E-2  2.41E-2   110
   13365   748.02  2.45E-2  2.48E-2  2.52E-2   108
   13370   747.74  2.10E-2  2.13E-2  2.17E-2   112
   13375   747.46  1.98E-2  2.02E-2  2.06E-2   114
   13380   747.18  2.39E-2  2.44E-2  2.50E-2   108
   13385   746.90  2.78E-2  2.85E-2  2.92E-2   103
   13390   746.62  2.26E-2  2.32E-2  2.39E-2   109
   13395   746.34  2.08E-2  2.15E-2  2.22E-2   110
   13400   746.06  2.24E-2  2.32E-2  2.40E-2   108
   13405   745.78  2.32E-2  2.41E-2  2.51E-2   106
   13410   745.51  2.40E-2  2.50E-2  2.60E-2   105
   13415   745.23  2.45E-2  2.56E-2  2.67E-2   104
   13420   744.95  2.33E-2  2.44E-2  2.56E-2   105
   13425   744.67  2.41E-2  2.53E-2  2.66E-2   104
   13430   744.40  2.48E-2  2.62E-2  2.76E-2   102
   13435   744.12  2.55E-2  2.70E-2  2.85E-2   101
   13440   743.84  2.72E-2  2.88E-2  3.06E-2    99
   13445   743.57  2.88E-2  3.06E-2  3.26E-2    97
   13450   743.29  3.55E-2  3.78E-2  4.03E-2    90
   13455   743.01  4.02E-2  4.30E-2  4.59E-2    86
   13460   742.74  4.33E-2  4.66E-2  5.02E-2    83
   13465   742.46  4.62E-2  5.26E-2  5.99E-2    78
   13470   742.19  4.90E-2  5.90E-2  7.11E-2    73
   13475   741.91  6.04E-2  7.05E-2  8.22E-2    69
   13480   741.64  6.86E-2  8.03E-2  9.41E-2    65
   13485   741.36  7.31E-2  8.88E-2  1.08E-1    61
   13490   741.09  7.83E-2  9.76E-2  1.22E-1    58
   13495   740.81  9.28E-2  1.12E-1  1.36E-1    55
   13500   740.54  1.18E-1  1.34E-1  1.51E-1    52
   13505   740.26  1.36E-1  1.51E-1  1.68E-1    50
   13510   739.99  1.35E-1  1.58E-1  1.84E-1    48
   13515   739.71  1.52E-1  1.76E-1  2.03E-1    46
   13520   739.44  1.83E-1  2.05E-1  2.31E-1    43
   13525   739.17  2.14E-1  2.37E-1  2.62E-1    40
   13530   738.89  2.25E-1  2.56E-1  2.92E-1    38
   13535   738.62  2.55E-1  2.87E-1  3.24E-1    36
   13540   738.35  2.90E-1  3.22E-1  3.59E-1    35
   13545   738.08  3.27E-1  3.59E-1  3.93E-1    33
   13550   737.80  3.62E-1  3.93E-1  4.28E-1    32
   13555   737.53  3.77E-1  4.20E-1  4.69E-1    30
   13560   737.26  4.05E-1  4.56E-1  5.13E-1    29
   13565   736.99  5.00E-1  5.28E-1  5.57E-1    28
   13570   736.72  5.72E-1  5.86E-1  6.00E-1    27
   13575   736.45  5.28E-1  5.80E-1  6.37E-1    26
   13580   736.17  4.88E-1  5.72E-1  6.71E-1    25
   13585   735.90  5.32E-1  6.13E-1  7.06E-1    25
   13590   735.63  6.42E-1  6.97E-1  7.57E-1    24
   13595   735.36  7.98E-1  8.19E-1  8.41E-1    23
   13600   735.09  8.18E-1  8.71E-1  9.29E-1    22
   13605   734.82  7.22E-1  8.56E-1  1.02E+0    21
   13610   734.55  7.96E-1  9.40E-1  1.11E+0    20
   13615   734.28  9.65E-1  1.08E+0  1.21E+0    19
   13620   734.01  9.82E-1  1.14E+0  1.32E+0    18
   13625   733.74  9.99E-1  1.19E+0  1.41E+0    17
   13630   733.47  1.12E+0  1.29E+0  1.49E+0    17
   13635   733.20  1.22E+0  1.39E+0  1.57E+0    16
   13640   732.94  1.41E+0  1.53E+0  1.65E+0    16
   13645   732.67  1.52E+0  1.61E+0  1.70E+0    16
   13650   732.40  1.44E+0  1.58E+0  1.74E+0    15
   13655   732.13  1.52E+0  1.64E+0  1.77E+0    15
   13660   731.86  1.57E+0  1.68E+0  1.80E+0    15
   13665   731.60  1.55E+0  1.71E+0  1.89E+0    15
   13670   731.33  1.69E+0  1.84E+0  2.00E+0    14
   13675   731.06  1.77E+0  1.93E+0  2.11E+0    14
   13680   730.79  1.96E+0  2.09E+0  2.22E+0    13
   13685   730.53  2.29E+0  2.31E+0  2.34E+0    13
   13690   730.26  2.41E+0  2.43E+0  2.46E+0    13
   13695   729.99  2.73E+0  2.65E+0  2.58E+0    12
   13700   729.73  2.79E+0  2.74E+0  2.68E+0    12
   13705   729.46  2.96E+0  2.85E+0  2.75E+0    12
   13710   729.19  2.96E+0  2.89E+0  2.81E+0    12
   13715   728.93  3.00E+0  2.94E+0  2.88E+0    12
   13720   728.66  2.90E+0  2.94E+0  2.99E+0    11
   13725   728.40  3.03E+0  3.09E+0  3.16E+0    11
   13730   728.13  3.86E+0  3.58E+0  3.32E+0    11
   13735   727.87  4.34E+0  3.89E+0  3.47E+0    11
   13740   727.60  4.37E+0  3.91E+0  3.50E+0    10
   13745   727.34  5.14E+0  4.22E+0  3.47E+0    10
   13750   727.07  4.75E+0  4.04E+0  3.43E+0    10
   13755   726.81  4.45E+0  3.89E+0  3.40E+0    11
   13760   726.54  3.76E+0  3.55E+0  3.34E+0    11
   13765   726.28  3.33E+0  3.31E+0  3.29E+0    11
   13770   726.02  3.73E+0  3.47E+0  3.23E+0    11
   13775   725.75  4.50E+0  3.79E+0  3.19E+0    11
   13780   725.49  4.13E+0  3.62E+0  3.17E+0    11
   13785   725.23  3.64E+0  3.38E+0  3.15E+0    11
   13790   724.96  3.38E+0  3.25E+0  3.12E+0    11
   13795   724.70  3.09E+0  3.07E+0  3.05E+0    11
   13800   724.44  2.47E+0  2.70E+0  2.95E+0    11
   13805   724.18  2.16E+0  2.48E+0  2.86E+0    11
   13810   723.91  2.23E+0  2.49E+0  2.77E+0    11
   13815   723.65  2.02E+0  2.33E+0  2.68E+0    12
   13820   723.39  1.94E+0  2.24E+0  2.59E+0    12
   13825   723.13  1.76E+0  2.10E+0  2.50E+0    12
   13830   722.87  1.70E+0  2.02E+0  2.39E+0    12
   13835   722.61  1.64E+0  1.91E+0  2.22E+0    13
   13840   722.34  1.49E+0  1.74E+0  2.04E+0    13
   13845   722.08  1.53E+0  1.69E+0  1.87E+0    14
   13850   721.82  1.58E+0  1.65E+0  1.73E+0    14
   13855   721.56  1.56E+0  1.61E+0  1.66E+0    14
   13860   721.30  1.46E+0  1.53E+0  1.60E+0    15
   13865   721.04  1.40E+0  1.47E+0  1.54E+0    15
   13870   720.78  1.34E+0  1.41E+0  1.48E+0    15
   13875   720.52  1.34E+0  1.39E+0  1.43E+0    15
   13880   720.26  1.36E+0  1.37E+0  1.39E+0    15
   13885   720.00  1.35E+0  1.34E+0  1.34E+0    16
   13890   719.74  1.18E+0  1.22E+0  1.26E+0    16
   13895   719.49  1.11E+0  1.14E+0  1.17E+0    17
   13900   719.23  1.04E+0  1.06E+0  1.07E+0    18
   13905   718.97  8.88E-1  9.32E-1  9.78E-1    18
   13910   718.71  8.52E-1  8.72E-1  8.93E-1    19
   13915   718.45  8.53E-1  8.32E-1  8.11E-1    20
   13920   718.19  8.14E-1  7.70E-1  7.29E-1    21
   13925   717.93  7.13E-1  6.85E-1  6.59E-1    22
   13930   717.68  6.39E-1  6.26E-1  6.14E-1    22
   13935   717.42  6.00E-1  5.85E-1  5.71E-1    23
   13940   717.16  5.67E-1  5.47E-1  5.27E-1    24
   13945   716.91  4.40E-1  4.60E-1  4.81E-1    25
   13950   716.65  3.76E-1  4.01E-1  4.29E-1    26
   13955   716.39  3.39E-1  3.57E-1  3.76E-1    28
   13960   716.14  2.94E-1  3.09E-1  3.24E-1    30
   13965   715.88  2.33E-1  2.55E-1  2.79E-1    32
   13970   715.62  1.92E-1  2.15E-1  2.42E-1    34
   13975   715.37  1.60E-1  1.81E-1  2.04E-1    37
   13980   715.11  1.33E-1  1.49E-1  1.67E-1    40
   13985   714.85  1.17E-1  1.29E-1  1.42E-1    43
   13990   714.60  1.07E-1  1.16E-1  1.26E-1    45
   13995   714.34  9.82E-2  1.04E-1  1.11E-1    48
   14000   714.09  9.07E-2  9.32E-2  9.57E-2    51
   14005   713.83  8.53E-2  8.53E-2  8.53E-2    53
   14010   713.58  8.15E-2  7.95E-2  7.76E-2    55
   14015   713.32  8.42E-2  7.67E-2  6.99E-2    57
   14020   713.07  8.71E-2  7.38E-2  6.25E-2    59
   14025   712.82  8.86E-2  7.30E-2  6.01E-2    60
   14030   712.56  9.66E-2  7.91E-2  6.48E-2    58
   14035   712.31  1.00E-1  8.17E-2  6.65E-2    58
   14040   712.05  9.17E-2  7.42E-2  6.00E-2    60
   14045   711.80  8.73E-2  7.02E-2  5.65E-2    61
   14050   711.55  8.61E-2  6.88E-2  5.50E-2    62
   14055   711.29  8.56E-2  6.80E-2  5.40E-2    62
   14060   711.04  8.81E-2  6.95E-2  5.49E-2    61
   14065   710.79  8.95E-2  7.02E-2  5.51E-2    61
   14070   710.54  9.57E-2  7.46E-2  5.81E-2    60
   14075   710.28  1.05E-1  8.12E-2  6.29E-2    58
   14080   710.03  1.17E-1  9.00E-2  6.92E-2    56
   14085   709.78  1.22E-1  9.26E-2  7.03E-2    55
   14090   709.53  1.23E-1  9.29E-2  7.03E-2    55
   14095   709.28  1.23E-1  9.29E-2  7.03E-2    55
   14100   709.02  1.32E-1  9.67E-2  7.11E-2    55
   14105   708.77  1.33E-1  9.90E-2  7.36E-2    54
   14110   708.52  1.31E-1  9.99E-2  7.61E-2    53
   14115   708.27  1.38E-1  1.04E-1  7.86E-2    52
   14120   708.02  1.53E-1  1.11E-1  8.03E-2    52
   14125   707.77  1.60E-1  1.13E-1  8.03E-2    51
   14130   707.52  1.67E-1  1.16E-1  8.03E-2    51
   14135   707.27  1.71E-1  1.17E-1  8.02E-2    51
   14140   707.02  1.86E-1  1.27E-1  8.61E-2    50
   14145   706.77  2.01E-1  1.43E-1  1.02E-1    46
   14150   706.52  2.04E-1  1.56E-1  1.19E-1    43
   14155   706.27  2.09E-1  1.68E-1  1.35E-1    41
   14160   706.02  2.04E-1  1.74E-1  1.48E-1    39
   14165   705.77  2.06E-1  1.78E-1  1.54E-1    38
   14170   705.52  2.16E-1  1.86E-1  1.60E-1    38
   14175   705.27  2.29E-1  1.95E-1  1.67E-1    37
   14180   705.02  2.62E-1  2.13E-1  1.73E-1    36
   14185   704.78  3.24E-1  2.41E-1  1.79E-1    35
   14190   704.53  3.50E-1  2.55E-1  1.85E-1    35
   14195   704.28  3.45E-1  2.57E-1  1.92E-1    34
   14200   704.03  3.36E-1  2.56E-1  1.95E-1    34
   14205   703.78  3.01E-1  2.41E-1  1.93E-1    34
   14210   703.54  2.90E-1  2.34E-1  1.90E-1    34
   14215   703.29  3.02E-1  2.38E-1  1.87E-1    34
   14220   703.04  3.06E-1  2.42E-1  1.92E-1    34
   14225   702.79  3.31E-1  2.58E-1  2.01E-1    33
   14230   702.55  3.61E-1  2.75E-1  2.09E-1    32
   14235   702.30  3.73E-1  2.85E-1  2.18E-1    32
   14240   702.05  3.75E-1  2.93E-1  2.28E-1    31
   14245   701.81  3.37E-1  2.84E-1  2.40E-1    30
   14250   701.56  3.23E-1  2.85E-1  2.51E-1    30
   14255   701.31  3.20E-1  2.90E-1  2.62E-1    29
   14260   701.07  2.94E-1  2.78E-1  2.62E-1    29
   14265   700.82  2.84E-1  2.68E-1  2.53E-1    29
   14270   700.58  2.70E-1  2.56E-1  2.44E-1    30
   14275   700.33  2.51E-1  2.43E-1  2.35E-1    30
   14280   700.09  2.59E-1  2.39E-1  2.21E-1    31
   14285   699.84  2.39E-1  2.19E-1  2.02E-1    32
   14290   699.60  2.34E-1  2.07E-1  1.83E-1    34
   14295   699.35  2.09E-1  1.85E-1  1.63E-1    35
   14300   699.11  1.80E-1  1.63E-1  1.48E-1    37
   14305   698.86  1.58E-1  1.47E-1  1.38E-1    38
   14310   698.62  1.41E-1  1.34E-1  1.28E-1    39
   14315   698.38  1.36E-1  1.27E-1  1.18E-1    40
   14320   698.13  1.28E-1  1.18E-1  1.09E-1    41
   14325   697.89  1.18E-1  1.10E-1  1.02E-1    43
   14330   697.64  1.11E-1  1.03E-1  9.50E-2    44
   14335   697.40  1.08E-1  9.74E-2  8.81E-2    45
   14340   697.16  1.16E-1  9.72E-2  8.15E-2    46
   14345   696.91  1.12E-1  9.17E-2  7.52E-2    48
   14350   696.67  9.96E-2  8.28E-2  6.88E-2    49
   14355   696.43  8.84E-2  7.43E-2  6.25E-2    51
   14360   696.19  7.50E-2  6.54E-2  5.71E-2    53
   14365   695.94  7.08E-2  6.11E-2  5.27E-2    54
   14370   695.70  6.31E-2  5.52E-2  4.83E-2    56
   14375   695.46  5.67E-2  4.99E-2  4.39E-2    57
   14380   695.22  5.12E-2  4.54E-2  4.03E-2    59
   14385   694.98  4.48E-2  4.13E-2  3.80E-2    60
   14390   694.74  3.99E-2  3.77E-2  3.57E-2    61
   14395   694.49  3.83E-2  3.58E-2  3.34E-2    62
   14400   694.25  3.76E-2  3.43E-2  3.13E-2    63
   14405   694.01  3.62E-2  3.28E-2  2.97E-2    64
   14410   693.77  3.16E-2  2.98E-2  2.81E-2    65
   14415   693.53  3.15E-2  2.89E-2  2.65E-2    66
   14420   693.29  3.07E-2  2.76E-2  2.49E-2    67
   14425   693.05  3.00E-2  2.63E-2  2.30E-2    69
   14430   692.81  2.82E-2  2.44E-2  2.11E-2    70
   14435   692.57  2.77E-2  2.30E-2  1.91E-2    71
   14440   692.33  2.88E-2  2.23E-2  1.73E-2    73
   14445   692.09  2.66E-2  2.10E-2  1.66E-2    74
   14450   691.85  2.64E-2  2.06E-2  1.61E-2    74
   14455   691.61  2.59E-2  2.01E-2  1.56E-2    74
   14460   691.37  2.62E-2  2.00E-2  1.52E-2    75
   14465   691.13  2.67E-2  2.04E-2  1.56E-2    74
   14470   690.89  2.72E-2  2.11E-2  1.64E-2    73
   14475   690.66  2.70E-2  2.15E-2  1.72E-2    72
   14480   690.42  2.77E-2  2.22E-2  1.78E-2    71
   14485   690.18  2.73E-2  2.20E-2  1.77E-2    71
   14490   689.94  2.54E-2  2.10E-2  1.73E-2    71
   14495   689.70  2.57E-2  2.09E-2  1.70E-2    72
   14500   689.46  2.74E-2  2.13E-2  1.66E-2    72
   14505   689.23  3.02E-2  2.28E-2  1.72E-2    71
   14510   688.99  3.31E-2  2.45E-2  1.82E-2    70
   14515   688.75  3.64E-2  2.64E-2  1.91E-2    69
   14520   688.52  3.49E-2  2.64E-2  2.00E-2    68
   14525   688.28  3.25E-2  2.62E-2  2.12E-2    67
   14530   688.04  3.40E-2  2.77E-2  2.25E-2    66
   14535   687.80  3.43E-2  2.86E-2  2.38E-2    65
   14540   687.57  3.54E-2  2.98E-2  2.51E-2    63
   14545   687.33  3.71E-2  3.11E-2  2.60E-2    63
   14550   687.10  3.90E-2  3.18E-2  2.60E-2    63
   14555   686.86  4.39E-2  3.38E-2  2.60E-2    62
   14560   686.62  4.66E-2  3.48E-2  2.60E-2    62
   14565   686.39  4.39E-2  3.38E-2  2.60E-2    62
   14570   686.15  4.11E-2  3.27E-2  2.60E-2    62
   14575   685.92  4.41E-2  3.39E-2  2.60E-2    62
   14580   685.68  4.61E-2  3.46E-2  2.60E-2    62
   14585   685.45  5.04E-2  3.63E-2  2.61E-2    62
   14590   685.21  5.25E-2  3.84E-2  2.81E-2    60
   14595   684.98  5.02E-2  3.93E-2  3.07E-2    58
   14600   684.74  4.94E-2  4.06E-2  3.33E-2    57
   14605   684.51  5.05E-2  4.26E-2  3.59E-2    55
   14610   684.27  5.36E-2  4.51E-2  3.80E-2    54
   14615   684.04  6.19E-2  4.96E-2  3.97E-2    53
   14620   683.81  6.45E-2  5.17E-2  4.14E-2    52
   14625   683.57  6.34E-2  5.22E-2  4.30E-2    52
   14630   683.34  6.65E-2  5.17E-2  4.02E-2    53
   14635   683.10  6.34E-2  4.74E-2  3.54E-2    55
   14640   682.87  6.35E-2  4.41E-2  3.06E-2    57
   14645   682.64  6.99E-2  4.25E-2  2.58E-2    60
   14650   682.41  7.20E-2  4.02E-2  2.24E-2    62
   14655   682.17  5.85E-2  3.50E-2  2.10E-2    63
   14660   681.94  5.51E-2  3.29E-2  1.96E-2    64
   14665   681.71  4.77E-2  2.95E-2  1.82E-2    65
   14670   681.48  4.25E-2  2.67E-2  1.68E-2    66
   14675   681.24  3.69E-2  2.38E-2  1.54E-2    67
   14680   681.01  3.78E-2  2.30E-2  1.40E-2    69
   14685   680.78  3.45E-2  2.09E-2  1.27E-2    70
   14690   680.55  3.63E-2  2.03E-2  1.13E-2    71
   14695   680.32  3.41E-2  1.84E-2  9.90E-3    73
   14700   680.08  2.94E-2  1.58E-2  8.50E-3    74
   14705   679.85  2.91E-2  1.44E-2  7.10E-3    76
   14710   679.62  2.44E-2  1.18E-2  5.70E-3    78
   14715   679.39  2.19E-2  1.09E-2  5.40E-3    78
   14720   679.16  1.93E-2  1.05E-2  5.70E-3    78
   14725   678.93  1.78E-2  1.04E-2  6.10E-3    77
   14730   678.70  1.65E-2  1.03E-2  6.40E-3    76
   14735   678.47  1.57E-2  1.03E-2  6.80E-3    75
   14740   678.24  1.50E-2  1.04E-2  7.20E-3    75
   14745   678.01  1.46E-2  1.06E-2  7.70E-3    74
   14750   677.78  1.47E-2  1.12E-2  8.50E-3    73
   14755   677.55  1.49E-2  1.18E-2  9.30E-3    71
   14760   677.32  1.53E-2  1.26E-2  1.03E-2    70
   14765   677.09  1.52E-2  1.29E-2  1.09E-2    69
   14770   676.86  1.54E-2  1.35E-2  1.18E-2    68
   14775   676.63  1.64E-2  1.48E-2  1.34E-2    66
   14780   676.40  1.80E-2  1.67E-2  1.55E-2    64
   14785   676.17  1.89E-2  1.80E-2  1.71E-2    63
   14790   675.95  1.93E-2  1.88E-2  1.84E-2    61
   14795   675.72  1.97E-2  1.97E-2  1.97E-2    60
   14800   675.49  2.07E-2  2.11E-2  2.15E-2    59
   14805   675.26  2.35E-2  2.40E-2  2.45E-2    57
   14810   675.03  2.65E-2  2.70E-2  2.75E-2    55
   14815   674.81  2.71E-2  2.87E-2  3.04E-2    53
   14820   674.58  3.20E-2  3.22E-2  3.25E-2    52
   14825   674.35  3.66E-2  3.31E-2  3.00E-2    53
   14830   674.12  3.55E-2  3.11E-2  2.73E-2    54
   14835   673.90  3.55E-2  2.95E-2  2.45E-2    56
   14840   673.67  3.74E-2  2.87E-2  2.20E-2    57
   14845   673.44  4.38E-2  3.61E-2  2.98E-2    53
   14850   673.21  4.79E-2  4.50E-2  4.22E-2    47
   14855   672.99  5.21E-2  5.33E-2  5.46E-2    43
   14860   672.76  5.62E-2  6.13E-2  6.68E-2    40
   14865   672.54  5.90E-2  6.51E-2  7.19E-2    38
   14870   672.31  6.36E-2  6.86E-2  7.41E-2    38
   14875   672.08  7.24E-2  7.44E-2  7.64E-2    37
   14880   671.86  7.71E-2  7.79E-2  7.87E-2    37
   14885   671.63  7.99E-2  7.96E-2  7.94E-2    37
   14890   671.41  8.81E-2  8.25E-2  7.72E-2    37
   14895   671.18  9.78E-2  8.56E-2  7.50E-2    37
   14900   670.96  1.03E-1  8.65E-2  7.27E-2    38
   14905   670.73  1.06E-1  8.69E-2  7.10E-2    38
   14910   670.51  1.13E-1  9.42E-2  7.81E-2    36
   14915   670.28  1.19E-1  1.02E-1  8.72E-2    35
   14920   670.06  1.24E-1  1.09E-1  9.62E-2    33
   14925   669.83  1.38E-1  1.20E-1  1.05E-1    32
   14930   669.61  1.42E-1  1.26E-1  1.11E-1    31
   14935   669.38  1.46E-1  1.29E-1  1.14E-1    31
   14940   669.16  1.48E-1  1.31E-1  1.16E-1    31
   14945   668.94  1.63E-1  1.39E-1  1.18E-1    30
   14950   668.71  1.71E-1  1.44E-1  1.20E-1    30
   14955   668.49  1.63E-1  1.41E-1  1.23E-1    30
   14960   668.26  1.60E-1  1.41E-1  1.25E-1    29
   14965   668.04  1.80E-1  1.51E-1  1.27E-1    29
   14970   667.82  1.84E-1  1.54E-1  1.29E-1    29
   14975   667.60  1.86E-1  1.56E-1  1.31E-1    28
   14980   667.37  1.87E-1  1.57E-1  1.32E-1    28
   14985   667.15  1.80E-1  1.55E-1  1.34E-1    28
   14990   666.93  1.90E-1  1.60E-1  1.35E-1    28
   14995   666.70  1.90E-1  1.60E-1  1.35E-1    28
   15000   666.48  1.87E-1  1.59E-1  1.35E-1    28
   15005   666.26  1.99E-1  1.64E-1  1.35E-1    28
   15010   666.04  1.87E-1  1.59E-1  1.35E-1    28
   15015   665.82  1.82E-1  1.57E-1  1.35E-1    28
   15020   665.60  1.79E-1  1.55E-1  1.34E-1    28
   15025   665.37  1.64E-1  1.48E-1  1.33E-1    28
   15030   665.15  1.54E-1  1.43E-1  1.32E-1    28
   15035   664.93  1.51E-1  1.41E-1  1.31E-1    28
   15040   664.71  1.48E-1  1.39E-1  1.30E-1    28
   15045   664.49  1.48E-1  1.38E-1  1.29E-1    28
   15050   664.27  1.48E-1  1.38E-1  1.28E-1    28
   15055   664.05  1.48E-1  1.37E-1  1.27E-1    28
   15060   663.83  1.44E-1  1.34E-1  1.26E-1    28
   15065   663.61  1.44E-1  1.34E-1  1.25E-1    28
   15070   663.39  1.44E-1  1.34E-1  1.25E-1    28
   15075   663.17  1.44E-1  1.35E-1  1.25E-1    28
   15080   662.95  1.47E-1  1.36E-1  1.25E-1    28
   15085   662.73  1.47E-1  1.36E-1  1.26E-1    28
   15090   662.51  1.40E-1  1.34E-1  1.28E-1    27
   15095   662.29  1.37E-1  1.33E-1  1.31E-1    27
   15100   662.07  1.30E-1  1.31E-1  1.33E-1    27
   15105   661.85  1.26E-1  1.31E-1  1.35E-1    26
   15110   661.63  1.23E-1  1.27E-1  1.32E-1    27
   15115   661.41  1.18E-1  1.22E-1  1.27E-1    27
   15120   661.19  1.12E-1  1.17E-1  1.22E-1    28
   15125   660.97  1.12E-1  1.14E-1  1.17E-1    28
   15130   660.76  1.10E-1  1.13E-1  1.15E-1    28
   15135   660.54  1.06E-1  1.10E-1  1.15E-1    28
   15140   660.32  1.04E-1  1.10E-1  1.15E-1    28
   15145   660.10  1.05E-1  1.10E-1  1.15E-1    28
   15150   659.88  1.09E-1  1.12E-1  1.15E-1    28
   15155   659.67  1.10E-1  1.13E-1  1.15E-1    28
   15160   659.45  1.09E-1  1.12E-1  1.15E-1    28
   15165   659.23  1.10E-1  1.13E-1  1.15E-1    28
   15170   659.01  1.04E-1  1.09E-1  1.15E-1    28
   15175   658.80  9.76E-2  1.06E-1  1.15E-1    28
   15180   658.58  9.53E-2  1.04E-1  1.14E-1    28
   15185   658.36  9.63E-2  1.04E-1  1.13E-1    28
   15190   658.15  9.55E-2  1.03E-1  1.11E-1    28
   15195   657.93  9.23E-2  1.01E-1  1.10E-1    28
   15200   657.71  9.38E-2  1.01E-1  1.08E-1    28
   15205   657.50  9.17E-2  9.87E-2  1.06E-1    28
   15210   657.28  9.12E-2  9.74E-2  1.04E-1    28
   15215   657.06  9.19E-2  9.68E-2  1.02E-1    28
   15220   656.85  8.99E-2  9.47E-2  9.97E-2    29
   15225   656.63  9.44E-2  9.58E-2  9.73E-2    29
   15230   656.42  9.64E-2  9.56E-2  9.49E-2    29
   15235   656.20  9.30E-2  9.27E-2  9.24E-2    29
   15240   655.99  9.00E-2  8.99E-2  8.98E-2    30
   15245   655.77  8.37E-2  8.46E-2  8.56E-2    30
   15250   655.56  7.94E-2  8.03E-2  8.12E-2    31
   15255   655.34  7.12E-2  7.40E-2  7.69E-2    31
   15260   655.13  6.86E-2  7.06E-2  7.26E-2    32
   15265   654.91  7.15E-2  7.08E-2  7.01E-2    32
   15270   654.70  6.74E-2  6.87E-2  7.01E-2    32
   15275   654.48  6.48E-2  6.74E-2  7.01E-2    32
   15280   654.27  6.29E-2  6.64E-2  7.01E-2    32
   15285   654.06  6.08E-2  6.53E-2  7.01E-2    32
   15290   653.84  5.77E-2  6.29E-2  6.85E-2    32
   15295   653.63  5.56E-2  6.08E-2  6.64E-2    33
   15300   653.41  5.19E-2  5.77E-2  6.42E-2    33
   15305   653.20  5.06E-2  5.61E-2  6.21E-2    33
   15310   652.99  4.79E-2  5.38E-2  6.05E-2    33
   15315   652.77  4.64E-2  5.38E-2  6.24E-2    33
   15320   652.56  4.48E-2  5.38E-2  6.45E-2    33
   15325   652.35  4.37E-2  5.39E-2  6.66E-2    32
   15330   652.14  4.38E-2  5.49E-2  6.88E-2    32
   15335   651.92  4.40E-2  5.52E-2  6.93E-2    31
   15340   651.71  4.35E-2  5.41E-2  6.72E-2    32
   15345   651.50  4.14E-2  5.19E-2  6.51E-2    32
   15350   651.29  4.27E-2  5.18E-2  6.29E-2    32
   15355   651.07  4.32E-2  5.12E-2  6.08E-2    33
   15360   650.86  4.43E-2  5.13E-2  5.93E-2    33
   15365   650.65  4.47E-2  5.10E-2  5.81E-2    33
   15370   650.44  4.46E-2  5.04E-2  5.70E-2    33
   15375   650.23  4.39E-2  4.95E-2  5.58E-2    34
   15380   650.02  4.31E-2  4.87E-2  5.50E-2    34
   15385   649.80  4.08E-2  4.73E-2  5.48E-2    34
   15390   649.59  3.89E-2  4.61E-2  5.46E-2    34
   15395   649.38  3.64E-2  4.45E-2  5.44E-2    34
   15400   649.17  3.70E-2  4.48E-2  5.42E-2    33
   15405   648.96  3.68E-2  4.44E-2  5.35E-2    34
   15410   648.75  3.70E-2  4.42E-2  5.27E-2    34
   15415   648.54  3.74E-2  4.40E-2  5.18E-2    34
   15420   648.33  3.37E-2  4.15E-2  5.10E-2    34
   15425   648.12  3.14E-2  3.97E-2  5.01E-2    34
   15430   647.91  2.97E-2  3.80E-2  4.86E-2    34
   15435   647.70  2.85E-2  3.66E-2  4.69E-2    35
   15440   647.49  2.45E-2  3.33E-2  4.52E-2    35
   15445   647.28  2.33E-2  3.18E-2  4.35E-2    35
   15450   647.07  2.39E-2  3.16E-2  4.19E-2    36
   15455   646.86  2.44E-2  3.15E-2  4.06E-2    36
   15460   646.65  2.59E-2  3.19E-2  3.94E-2    36
   15465   646.44  2.67E-2  3.19E-2  3.81E-2    37
   15470   646.23  2.64E-2  3.12E-2  3.68E-2    37
   15475   646.03  2.71E-2  3.10E-2  3.55E-2    37
   15480   645.82  2.69E-2  3.03E-2  3.41E-2    38
   15485   645.61  2.66E-2  2.95E-2  3.27E-2    38
   15490   645.40  2.53E-2  2.81E-2  3.13E-2    39
   15495   645.19  2.47E-2  2.73E-2  3.01E-2    39
   15500   644.98  2.35E-2  2.67E-2  3.04E-2    39
   15505   644.78  2.35E-2  2.69E-2  3.09E-2    39
   15510   644.57  2.40E-2  2.74E-2  3.13E-2    38
   15515   644.36  2.39E-2  2.75E-2  3.17E-2    38
   15520   644.15  2.45E-2  2.80E-2  3.20E-2    38
   15525   643.94  2.56E-2  2.86E-2  3.20E-2    38
   15530   643.74  2.59E-2  2.88E-2  3.20E-2    38
   15535   643.53  2.78E-2  2.98E-2  3.20E-2    38
   15540   643.32  2.77E-2  2.98E-2  3.20E-2    38
   15545   643.12  2.83E-2  3.01E-2  3.20E-2    37
   15550   642.91  2.86E-2  3.03E-2  3.20E-2    37
   15555   642.70  2.93E-2  3.06E-2  3.20E-2    37
   15560   642.50  2.99E-2  3.09E-2  3.20E-2    37
   15565   642.29  3.13E-2  3.16E-2  3.20E-2    37
   15570   642.08  3.00E-2  3.07E-2  3.15E-2    37
   15575   641.88  2.81E-2  2.94E-2  3.07E-2    37
   15580   641.67  2.70E-2  2.84E-2  2.99E-2    38
   15585   641.47  2.59E-2  2.75E-2  2.91E-2    38
   15590   641.26  2.58E-2  2.70E-2  2.82E-2    38
   15595   641.05  2.47E-2  2.63E-2  2.80E-2    38
   15600   640.85  2.39E-2  2.59E-2  2.80E-2    38
   15605   640.64  2.22E-2  2.49E-2  2.80E-2    38
   15610   640.44  2.03E-2  2.38E-2  2.80E-2    38
   15615   640.23  1.93E-2  2.31E-2  2.76E-2    38
   15620   640.03  1.89E-2  2.23E-2  2.64E-2    38
   15625   639.82  1.79E-2  2.12E-2  2.51E-2    39
   15630   639.62  1.79E-2  2.07E-2  2.39E-2    39
   15635   639.41  1.74E-2  1.99E-2  2.27E-2    40
   15640   639.21  1.68E-2  1.91E-2  2.17E-2    40
   15645   639.01  1.63E-2  1.85E-2  2.11E-2    40
   15650   638.80  1.59E-2  1.81E-2  2.05E-2    40
   15655   638.60  1.55E-2  1.76E-2  1.99E-2    41
   15660   638.39  1.48E-2  1.69E-2  1.93E-2    41
   15665   638.19  1.41E-2  1.62E-2  1.85E-2    41
   15670   637.99  1.34E-2  1.54E-2  1.77E-2    42
   15675   637.78  1.28E-2  1.47E-2  1.69E-2    42
   15680   637.58  1.25E-2  1.42E-2  1.61E-2    42
   15685   637.38  1.25E-2  1.38E-2  1.53E-2    43
   15690   637.17  1.25E-2  1.36E-2  1.47E-2    43
   15695   636.97  1.25E-2  1.34E-2  1.43E-2    43
   15700   636.77  1.26E-2  1.32E-2  1.38E-2    43
   15705   636.56  1.19E-2  1.26E-2  1.34E-2    43
   15710   636.36  1.16E-2  1.23E-2  1.30E-2    44
   15715   636.16  1.14E-2  1.21E-2  1.28E-2    44
   15720   635.96  1.10E-2  1.18E-2  1.26E-2    44
   15725   635.75  1.06E-2  1.15E-2  1.24E-2    44
   15730   635.55  1.05E-2  1.13E-2  1.22E-2    44
   15735   635.35  1.02E-2  1.11E-2  1.20E-2    44
   15740   635.15  1.00E-2  1.10E-2  1.20E-2    44
   15745   634.95  1.00E-2  1.10E-2  1.20E-2    44
   15750   634.75  9.80E-3  1.08E-2  1.20E-2    43
   15755   634.54  9.50E-3  1.07E-2  1.20E-2    43
   15760   634.34  9.40E-3  1.07E-2  1.21E-2    43
   15765   634.14  9.50E-3  1.08E-2  1.23E-2    43
   15770   633.94  9.50E-3  1.09E-2  1.25E-2    43
   15775   633.74  9.50E-3  1.10E-2  1.27E-2    43
   15780   633.54  9.40E-3  1.10E-2  1.29E-2    42
   15785   633.34  9.20E-3  1.10E-2  1.31E-2    42
   15790   633.14  9.20E-3  1.11E-2  1.33E-2    42
   15795   632.94  9.10E-3  1.11E-2  1.35E-2    42
   15800   632.74  9.20E-3  1.12E-2  1.37E-2    41
   15805   632.54  9.30E-3  1.14E-2  1.39E-2    41
   15810   632.34  9.40E-3  1.15E-2  1.40E-2    41
   15815   632.14  9.50E-3  1.15E-2  1.40E-2    41
   15820   631.94  9.90E-3  1.18E-2  1.40E-2    41
   15825   631.74  9.60E-3  1.16E-2  1.40E-2    41
   15830   631.54  9.90E-3  1.18E-2  1.40E-2    41
   15835   631.34  9.90E-3  1.19E-2  1.43E-2    40
   15840   631.14  1.06E-2  1.27E-2  1.52E-2    40
   15845   630.94  1.04E-2  1.29E-2  1.61E-2    39
   15850   630.74  1.08E-2  1.35E-2  1.69E-2    39
   15855   630.54  1.11E-2  1.41E-2  1.78E-2    38
   15860   630.34  1.16E-2  1.51E-2  1.96E-2    37
   15865   630.14  1.20E-2  1.61E-2  2.16E-2    36
   15870   629.95  1.23E-2  1.70E-2  2.36E-2    35
   15875   629.75  1.35E-2  1.86E-2  2.55E-2    34
   15880   629.55  1.45E-2  2.00E-2  2.75E-2    34
   15885   629.35  1.50E-2  2.17E-2  3.13E-2    32
   15890   629.15  1.63E-2  2.41E-2  3.57E-2    31
   15895   628.95  1.70E-2  2.61E-2  4.01E-2    30
   15900   628.76  1.81E-2  2.84E-2  4.45E-2    29
   15905   628.56  1.92E-2  3.06E-2  4.89E-2    28
   15910   628.36  2.08E-2  3.30E-2  5.22E-2    27
   15915   628.16  2.19E-2  3.48E-2  5.52E-2    26
   15920   627.97  2.33E-2  3.68E-2  5.81E-2    26
   15925   627.77  2.80E-2  4.14E-2  6.11E-2    25
   15930   627.57  3.05E-2  4.41E-2  6.39E-2    25
   15935   627.38  3.54E-2  5.01E-2  7.08E-2    24
   15940   627.18  3.91E-2  5.58E-2  7.97E-2    23
   15945   626.98  3.96E-2  5.92E-2  8.85E-2    22
   15950   626.79  4.30E-2  6.47E-2  9.74E-2    21
   15955   626.59  4.88E-2  7.21E-2  1.06E-1    20
   15960   626.39  5.53E-2  8.07E-2  1.18E-1    19
   15965   626.20  5.79E-2  8.65E-2  1.29E-1    18
   15970   626.00  6.14E-2  9.28E-2  1.40E-1    18
   15975   625.80  6.98E-2  1.03E-1  1.52E-1    17
   15980   625.61  8.31E-2  1.16E-1  1.63E-1    16
   15985   625.41  8.78E-2  1.24E-1  1.76E-1    16
   15990   625.22  9.88E-2  1.37E-1  1.89E-1    15
   15995   625.02  1.11E-1  1.50E-1  2.02E-1    15
   16000   624.83  1.26E-1  1.65E-1  2.16E-1    14
   16005   624.63  1.32E-1  1.74E-1  2.29E-1    14
   16010   624.44  1.41E-1  1.83E-1  2.38E-1    14
   16015   624.24  1.58E-1  1.97E-1  2.47E-1    13
   16020   624.05  1.76E-1  2.12E-1  2.56E-1    13
   16025   623.85  1.97E-1  2.28E-1  2.65E-1    13
   16030   623.66  2.26E-1  2.48E-1  2.73E-1    13
   16035   623.46  2.48E-1  2.66E-1  2.86E-1    12
   16040   623.27  2.74E-1  2.87E-1  2.99E-1    12
   16045   623.07  2.95E-1  3.04E-1  3.13E-1    12
   16050   622.88  3.14E-1  3.20E-1  3.27E-1    12
   16055   622.69  3.43E-1  3.42E-1  3.40E-1    11
   16060   622.49  3.66E-1  3.61E-1  3.57E-1    11
   16065   622.30  3.84E-1  3.81E-1  3.77E-1    11
   16070   622.11  4.15E-1  4.05E-1  3.96E-1    10
   16075   621.91  4.34E-1  4.25E-1  4.16E-1    10
   16080   621.72  4.57E-1  4.46E-1  4.35E-1    10
   16085   621.53  5.06E-1  4.79E-1  4.53E-1    10
   16090   621.33  5.42E-1  5.05E-1  4.70E-1    10
   16095   621.14  5.47E-1  5.17E-1  4.88E-1     9
   16100   620.95  5.61E-1  5.32E-1  5.05E-1     9
   16105   620.75  5.60E-1  5.41E-1  5.23E-1     9
   16110   620.56  5.65E-1  5.51E-1  5.38E-1     9
   16115   620.37  6.01E-1  5.76E-1  5.53E-1     9
   16120   620.18  6.23E-1  5.95E-1  5.67E-1     9
   16125   619.98  6.49E-1  6.14E-1  5.82E-1     8
   16130   619.79  6.95E-1  6.44E-1  5.96E-1     8
   16135   619.60  6.75E-1  6.39E-1  6.04E-1     8
   16140   619.41  6.81E-1  6.42E-1  6.06E-1     8
   16145   619.22  7.21E-1  6.62E-1  6.08E-1     8
   16150   619.02  7.19E-1  6.62E-1  6.10E-1     8
   16155   618.83  6.95E-1  6.52E-1  6.11E-1     8
   16160   618.64  6.66E-1  6.37E-1  6.10E-1     8
   16165   618.45  6.89E-1  6.43E-1  6.00E-1     8
   16170   618.26  6.76E-1  6.32E-1  5.90E-1     8
   16175   618.07  6.62E-1  6.20E-1  5.81E-1     8
   16180   617.88  6.20E-1  5.95E-1  5.71E-1     8
   16185   617.69  5.77E-1  5.69E-1  5.61E-1     8
   16190   617.49  5.47E-1  5.47E-1  5.47E-1     8
   16195   617.30  5.23E-1  5.28E-1  5.33E-1     9
   16200   617.11  4.80E-1  4.99E-1  5.19E-1     9
   16205   616.92  4.39E-1  4.71E-1  5.05E-1     9
   16210   616.73  4.06E-1  4.47E-1  4.91E-1     9
   16215   616.54  4.04E-1  4.38E-1  4.76E-1     9
   16220   616.35  4.05E-1  4.31E-1  4.59E-1     9
   16225   616.16  3.94E-1  4.17E-1  4.42E-1     9
   16230   615.97  4.01E-1  4.13E-1  4.25E-1     9
   16235   615.78  3.87E-1  3.97E-1  4.08E-1    10
   16240   615.59  3.61E-1  3.76E-1  3.91E-1    10
   16245   615.40  3.45E-1  3.61E-1  3.77E-1    10
   16250   615.21  3.38E-1  3.51E-1  3.64E-1    10
   16255   615.03  3.40E-1  3.46E-1  3.51E-1    10
   16260   614.84  3.46E-1  3.42E-1  3.38E-1    10
   16265   614.65  3.33E-1  3.29E-1  3.24E-1    10
   16270   614.46  3.23E-1  3.16E-1  3.09E-1    11
   16275   614.27  3.19E-1  3.06E-1  2.93E-1    11
   16280   614.08  2.96E-1  2.86E-1  2.76E-1    11
   16285   613.89  2.72E-1  2.66E-1  2.60E-1    12
   16290   613.70  2.59E-1  2.51E-1  2.44E-1    12
   16295   613.52  2.45E-1  2.37E-1  2.30E-1    12
   16300   613.33  2.38E-1  2.27E-1  2.17E-1    12
   16305   613.14  2.24E-1  2.14E-1  2.04E-1    13
   16310   612.95  1.92E-1  1.91E-1  1.91E-1    13
   16315   612.76  1.63E-1  1.70E-1  1.78E-1    14
   16320   612.58  1.48E-1  1.56E-1  1.65E-1    14
   16325   612.39  1.37E-1  1.45E-1  1.54E-1    14
   16330   612.20  1.25E-1  1.35E-1  1.45E-1    15
   16335   612.01  1.12E-1  1.23E-1  1.37E-1    15
   16340   611.83  1.00E-1  1.13E-1  1.28E-1    15
   16345   611.64  9.52E-2  1.06E-1  1.19E-1    16
   16350   611.45  8.52E-2  9.71E-2  1.11E-1    16
   16355   611.26  7.39E-2  8.81E-2  1.05E-1    17
   16360   611.08  6.77E-2  8.20E-2  9.94E-2    17
   16365   610.89  6.53E-2  7.83E-2  9.38E-2    17
   16370   610.70  6.05E-2  7.30E-2  8.82E-2    18
   16375   610.52  5.66E-2  6.84E-2  8.26E-2    18
   16380   610.33  5.13E-2  6.39E-2  7.95E-2    19
   16385   610.15  4.89E-2  6.13E-2  7.68E-2    19
   16390   609.96  4.68E-2  5.88E-2  7.40E-2    19
   16395   609.77  4.56E-2  5.70E-2  7.12E-2    19
   16400   609.59  4.41E-2  5.49E-2  6.83E-2    19
   16405   609.40  4.41E-2  5.40E-2  6.61E-2    20
   16410   609.22  4.44E-2  5.34E-2  6.42E-2    20
   16415   609.03  4.26E-2  5.16E-2  6.24E-2    20
   16420   608.84  4.25E-2  5.07E-2  6.05E-2    20
   16425   608.66  4.31E-2  5.03E-2  5.87E-2    20
   16430   608.47  4.25E-2  4.91E-2  5.68E-2    21
   16435   608.29  4.03E-2  4.71E-2  5.51E-2    21
   16440   608.10  3.84E-2  4.53E-2  5.35E-2    21
   16445   607.92  3.54E-2  4.29E-2  5.19E-2    21
   16450   607.73  3.24E-2  4.04E-2  5.04E-2    21
   16455   607.55  2.99E-2  3.82E-2  4.88E-2    22
   16460   607.37  2.78E-2  3.63E-2  4.75E-2    22
   16465   607.18  2.64E-2  3.54E-2  4.76E-2    22
   16470   607.00  2.47E-2  3.43E-2  4.77E-2    22
   16475   606.81  2.38E-2  3.37E-2  4.78E-2    21
   16480   606.63  2.26E-2  3.29E-2  4.79E-2    21
   16485   606.44  2.13E-2  3.20E-2  4.80E-2    21
   16490   606.26  1.98E-2  3.08E-2  4.80E-2    21
   16495   606.08  1.80E-2  2.94E-2  4.80E-2    21
   16500   605.89  1.68E-2  2.84E-2  4.80E-2    21
   16505   605.71  1.57E-2  2.75E-2  4.80E-2    21
   16510   605.53  1.48E-2  2.67E-2  4.80E-2    21
   16515   605.34  1.43E-2  2.62E-2  4.80E-2    21
   16520   605.16  1.41E-2  2.60E-2  4.80E-2    21
   16525   604.98  1.33E-2  2.53E-2  4.80E-2    21
   16530   604.79  1.25E-2  2.45E-2  4.80E-2    21
   16535   604.61  1.19E-2  2.39E-2  4.80E-2    21
   16540   604.43  1.20E-2  2.40E-2  4.80E-2    21
   16545   604.24  1.17E-2  2.38E-2  4.83E-2    21
   16550   604.06  1.20E-2  2.43E-2  4.94E-2    21
   16555   603.88  1.17E-2  2.43E-2  5.05E-2    20
   16560   603.70  1.16E-2  2.45E-2  5.16E-2    20
   16565   603.52  1.21E-2  2.53E-2  5.27E-2    20
   16570   603.33  1.23E-2  2.57E-2  5.38E-2    20
   16575   603.15  1.24E-2  2.60E-2  5.46E-2    20
   16580   602.97  1.26E-2  2.64E-2  5.54E-2    19
   16585   602.79  1.28E-2  2.68E-2  5.61E-2    19
   16590   602.61  1.28E-2  2.70E-2  5.69E-2    19
   16595   602.42  1.38E-2  2.82E-2  5.76E-2    19
   16600   602.24  1.44E-2  2.90E-2  5.83E-2    19
   16605   602.06  1.47E-2  2.95E-2  5.91E-2    19
   16610   601.88  1.54E-2  3.03E-2  5.98E-2    19
   16615   601.70  1.58E-2  3.09E-2  6.05E-2    19
   16620   601.52  1.74E-2  3.26E-2  6.12E-2    18
   16625   601.34  1.81E-2  3.35E-2  6.20E-2    18
   16630   601.16  1.93E-2  3.46E-2  6.22E-2    18
   16635   600.98  2.08E-2  3.60E-2  6.22E-2    18
   16640   600.80  2.08E-2  3.60E-2  6.23E-2    18
   16645   600.61  2.10E-2  3.62E-2  6.24E-2    18
   16650   600.43  2.22E-2  3.72E-2  6.25E-2    18
   16655   600.25  2.26E-2  3.76E-2  6.26E-2    18
   16660   600.07  2.29E-2  3.80E-2  6.29E-2    18
   16665   599.89  2.42E-2  3.92E-2  6.34E-2    18
   16670   599.71  2.53E-2  4.02E-2  6.38E-2    18
   16675   599.53  2.63E-2  4.11E-2  6.43E-2    18
   16680   599.35  2.75E-2  4.22E-2  6.47E-2    18
   16685   599.17  2.87E-2  4.32E-2  6.50E-2    17
   16690   599.00  2.90E-2  4.32E-2  6.45E-2    17
   16695   598.82  2.92E-2  4.32E-2  6.39E-2    17
   16700   598.64  2.98E-2  4.35E-2  6.34E-2    17
   16705   598.46  3.06E-2  4.39E-2  6.29E-2    18
   16710   598.28  3.10E-2  4.39E-2  6.23E-2    18
   16715   598.10  3.18E-2  4.43E-2  6.17E-2    18
   16720   597.92  3.26E-2  4.46E-2  6.11E-2    18
   16725   597.74  3.37E-2  4.52E-2  6.05E-2    18
   16730   597.56  3.40E-2  4.51E-2  5.99E-2    18
   16735   597.38  3.43E-2  4.51E-2  5.92E-2    18
   16740   597.21  3.38E-2  4.45E-2  5.86E-2    18
   16745   597.03  3.35E-2  4.42E-2  5.82E-2    18
   16750   596.85  3.33E-2  4.39E-2  5.78E-2    18
   16755   596.67  3.33E-2  4.37E-2  5.73E-2    18
   16760   596.49  3.37E-2  4.38E-2  5.69E-2    18
   16765   596.32  3.48E-2  4.43E-2  5.65E-2    18
   16770   596.14  3.73E-2  4.57E-2  5.61E-2    18
   16775   595.96  3.94E-2  4.66E-2  5.52E-2    18
   16780   595.78  3.82E-2  4.55E-2  5.42E-2    18
   16785   595.61  3.56E-2  4.36E-2  5.33E-2    18
   16790   595.43  3.32E-2  4.17E-2  5.23E-2    18
   16795   595.25  3.19E-2  4.05E-2  5.13E-2    18
   16800   595.07  3.12E-2  3.97E-2  5.04E-2    18
   16805   594.90  3.13E-2  3.95E-2  4.98E-2    18
   16810   594.72  3.10E-2  3.91E-2  4.92E-2    18
   16815   594.54  2.97E-2  3.80E-2  4.85E-2    18
   16820   594.37  2.81E-2  3.67E-2  4.79E-2    18
   16825   594.19  2.53E-2  3.46E-2  4.74E-2    18
   16830   594.01  2.32E-2  3.27E-2  4.61E-2    19
   16835   593.84  2.20E-2  3.12E-2  4.43E-2    19
   16840   593.66  2.07E-2  2.97E-2  4.26E-2    19
   16845   593.48  2.00E-2  2.86E-2  4.08E-2    19
   16850   593.31  1.89E-2  2.72E-2  3.91E-2    19
   16855   593.13  1.76E-2  2.56E-2  3.73E-2    20
   16860   592.96  1.68E-2  2.47E-2  3.63E-2    20
   16865   592.78  1.57E-2  2.36E-2  3.54E-2    20
   16870   592.60  1.49E-2  2.27E-2  3.45E-2    20
   16875   592.43  1.41E-2  2.18E-2  3.36E-2    20
   16880   592.25  1.34E-2  2.10E-2  3.28E-2    20
   16885   592.08  1.27E-2  2.01E-2  3.18E-2    20
   16890   591.90  1.19E-2  1.94E-2  3.16E-2    20
   16895   591.73  1.11E-2  1.88E-2  3.19E-2    20
   16900   591.55  1.06E-2  1.85E-2  3.22E-2    20
   16905   591.38  1.03E-2  1.83E-2  3.24E-2    20
   16910   591.20  9.50E-3  1.76E-2  3.27E-2    20
   16915   591.03  9.00E-3  1.72E-2  3.30E-2    20
   16920   590.85  8.40E-3  1.62E-2  3.14E-2    20
   16925   590.68  7.70E-3  1.50E-2  2.94E-2    21
   16930   590.50  7.40E-3  1.43E-2  2.75E-2    21
   16935   590.33  7.30E-3  1.37E-2  2.56E-2    21
   16940   590.16  7.00E-3  1.29E-2  2.37E-2    22
   16945   589.98  6.70E-3  1.21E-2  2.20E-2    22
   16950   589.81  6.30E-3  1.17E-2  2.18E-2    22
   16955   589.63  5.90E-3  1.13E-2  2.16E-2    22
   16960   589.46  5.30E-3  1.07E-2  2.15E-2    22
   16965   589.29  5.30E-3  1.06E-2  2.13E-2    22
   16970   589.11  4.90E-3  1.02E-2  2.11E-2    22
   16975   588.94  4.50E-3  9.70E-3  2.10E-2    22
   16980   588.76  4.50E-3  9.70E-3  2.10E-2    22
   16985   588.59  4.40E-3  9.60E-3  2.10E-2    22
   16990   588.42  4.30E-3  9.50E-3  2.10E-2    22
   16995   588.25  4.20E-3  9.40E-3  2.10E-2    22
   17000   588.07  4.00E-3  9.20E-3  2.10E-2    22
   17005   587.90  4.00E-3  9.20E-3  2.10E-2    22
   17010   587.73  3.90E-3  9.00E-3  2.10E-2    22
   17015   587.55  3.90E-3  9.00E-3  2.10E-2    22
   17020   587.38  3.90E-3  9.00E-3  2.10E-2    22
   17025   587.21  3.80E-3  8.90E-3  2.10E-2    22
   17030   587.04  3.80E-3  8.90E-3  2.10E-2    21
   17035   586.86  3.80E-3  8.90E-3  2.10E-2    21
   17040   586.69  3.80E-3  8.90E-3  2.10E-2    21
   17045   586.52  3.80E-3  8.90E-3  2.10E-2    21
   17050   586.35  3.80E-3  8.90E-3  2.10E-2    21
   17055   586.18  3.90E-3  9.00E-3  2.10E-2    21
   17060   586.00  3.90E-3  9.00E-3  2.10E-2    21
   17065   585.83  3.80E-3  9.00E-3  2.11E-2    21
   17070   585.66  3.90E-3  9.10E-3  2.14E-2    21
   17075   585.49  3.90E-3  9.20E-3  2.17E-2    21
   17080   585.32  3.90E-3  9.30E-3  2.21E-2    21
   17085   585.15  3.90E-3  9.30E-3  2.24E-2    21
   17090   584.98  4.10E-3  9.60E-3  2.27E-2    20
   17095   584.80  4.20E-3  9.80E-3  2.30E-2    20
   17100   584.63  4.40E-3  1.01E-2  2.33E-2    20
   17105   584.46  4.50E-3  1.03E-2  2.37E-2    20
   17110   584.29  4.50E-3  1.04E-2  2.40E-2    20
   17115   584.12  4.70E-3  1.07E-2  2.44E-2    20
   17120   583.95  4.90E-3  1.10E-2  2.47E-2    20
   17125   583.78  5.10E-3  1.13E-2  2.50E-2    20
   17130   583.61  5.30E-3  1.14E-2  2.46E-2    20
   17135   583.44  5.50E-3  1.16E-2  2.43E-2    20
   17140   583.27  5.50E-3  1.15E-2  2.39E-2    20
   17145   583.10  5.70E-3  1.16E-2  2.36E-2    20
   17150   582.93  6.00E-3  1.18E-2  2.32E-2    20
   17155   582.76  6.20E-3  1.20E-2  2.31E-2    20
   17160   582.59  6.40E-3  1.22E-2  2.34E-2    20
   17165   582.42  6.80E-3  1.27E-2  2.38E-2    20
   17170   582.25  7.30E-3  1.33E-2  2.41E-2    19
   17175   582.08  7.90E-3  1.39E-2  2.44E-2    19
   17180   581.91  8.30E-3  1.43E-2  2.48E-2    19
   17185   581.74  8.90E-3  1.50E-2  2.53E-2    19
   17190   581.57  9.20E-3  1.56E-2  2.64E-2    19
   17195   581.40  9.60E-3  1.62E-2  2.74E-2    19
   17200   581.23  1.03E-2  1.71E-2  2.84E-2    18
   17205   581.07  1.12E-2  1.81E-2  2.94E-2    18
   17210   580.90  1.20E-2  1.91E-2  3.03E-2    18
   17215   580.73  1.28E-2  2.00E-2  3.14E-2    18
   17220   580.56  1.34E-2  2.07E-2  3.21E-2    17
   17225   580.39  1.45E-2  2.18E-2  3.29E-2    17
   17230   580.22  1.65E-2  2.36E-2  3.37E-2    17
   17235   580.05  1.80E-2  2.49E-2  3.44E-2    17
   17240   579.89  1.93E-2  2.61E-2  3.52E-2    17
   17245   579.72  2.08E-2  2.73E-2  3.59E-2    17
   17250   579.55  2.25E-2  2.89E-2  3.71E-2    16
   17255   579.38  2.44E-2  3.05E-2  3.82E-2    16
   17260   579.21  2.60E-2  3.20E-2  3.94E-2    16
   17265   579.05  2.68E-2  3.30E-2  4.06E-2    16
   17270   578.88  2.88E-2  3.47E-2  4.18E-2    16
   17275   578.71  3.15E-2  3.68E-2  4.29E-2    16
   17280   578.54  3.41E-2  3.86E-2  4.36E-2    15
   17285   578.38  3.68E-2  4.04E-2  4.43E-2    15
   17290   578.21  3.85E-2  4.16E-2  4.50E-2    15
   17295   578.04  4.03E-2  4.29E-2  4.56E-2    15
   17300   577.87  4.08E-2  4.35E-2  4.63E-2    15
   17305   577.71  4.17E-2  4.43E-2  4.70E-2    15
   17310   577.54  4.35E-2  4.57E-2  4.81E-2    15
   17315   577.37  4.34E-2  4.62E-2  4.92E-2    15
   17320   577.21  4.32E-2  4.67E-2  5.04E-2    14
   17325   577.04  4.26E-2  4.68E-2  5.15E-2    14
   17330   576.87  4.37E-2  4.79E-2  5.26E-2    14
   17335   576.71  4.69E-2  5.02E-2  5.38E-2    14
   17340   576.54  4.71E-2  5.07E-2  5.46E-2    14
   17345   576.38  4.71E-2  5.08E-2  5.48E-2    14
   17350   576.21  4.94E-2  5.22E-2  5.51E-2    14
   17355   576.04  5.13E-2  5.33E-2  5.53E-2    14
   17360   575.88  5.33E-2  5.44E-2  5.56E-2    14
   17365   575.71  5.27E-2  5.43E-2  5.59E-2    14
   17370   575.55  5.18E-2  5.36E-2  5.55E-2    14
   17375   575.38  5.22E-2  5.30E-2  5.38E-2    14
   17380   575.21  5.15E-2  5.18E-2  5.21E-2    14
   17385   575.05  5.00E-2  5.02E-2  5.05E-2    14
   17390   574.88  4.85E-2  4.86E-2  4.88E-2    14
   17395   574.72  4.76E-2  4.73E-2  4.71E-2    14
   17400   574.55  4.58E-2  4.58E-2  4.58E-2    14
   17405   574.39  4.34E-2  4.44E-2  4.54E-2    14
   17410   574.22  4.24E-2  4.36E-2  4.49E-2    14
   17415   574.06  4.12E-2  4.28E-2  4.44E-2    14
   17420   573.89  3.92E-2  4.15E-2  4.39E-2    14
   17425   573.73  3.78E-2  4.05E-2  4.34E-2    14
   17430   573.56  3.62E-2  3.94E-2  4.29E-2    14
   17435   573.40  3.43E-2  3.81E-2  4.23E-2    14
   17440   573.24  3.27E-2  3.69E-2  4.17E-2    15
   17445   573.07  3.16E-2  3.60E-2  4.11E-2    15
   17450   572.91  2.98E-2  3.47E-2  4.05E-2    15
   17455   572.74  2.75E-2  3.31E-2  3.99E-2    15
   17460   572.58  2.64E-2  3.22E-2  3.93E-2    15
   17465   572.41  2.63E-2  3.19E-2  3.87E-2    15
   17470   572.25  2.61E-2  3.16E-2  3.82E-2    15
   17475   572.09  2.56E-2  3.11E-2  3.78E-2    15
   17480   571.92  2.44E-2  3.02E-2  3.73E-2    15
   17485   571.76  2.36E-2  2.95E-2  3.68E-2    15
   17490   571.60  2.34E-2  2.91E-2  3.63E-2    15
   17495   571.43  2.29E-2  2.87E-2  3.59E-2    15
   17500   571.27  2.27E-2  2.84E-2  3.55E-2    15
   17505   571.11  2.16E-2  2.76E-2  3.52E-2    15
   17510   570.94  2.07E-2  2.69E-2  3.49E-2    15
   17515   570.78  2.00E-2  2.63E-2  3.46E-2    15
   17520   570.62  1.97E-2  2.60E-2  3.43E-2    15
   17525   570.46  1.91E-2  2.54E-2  3.37E-2    15
   17530   570.29  1.80E-2  2.43E-2  3.27E-2    15
   17535   570.13  1.82E-2  2.41E-2  3.18E-2    15
   17540   569.97  1.78E-2  2.34E-2  3.08E-2    15
   17545   569.80  1.70E-2  2.25E-2  2.98E-2    15
   17550   569.64  1.65E-2  2.18E-2  2.88E-2    16
   17555   569.48  1.57E-2  2.09E-2  2.79E-2    16
   17560   569.32  1.51E-2  2.03E-2  2.73E-2    16
   17565   569.16  1.44E-2  1.96E-2  2.67E-2    16
   17570   568.99  1.45E-2  1.95E-2  2.62E-2    16
   17575   568.83  1.37E-2  1.87E-2  2.56E-2    16
   17580   568.67  1.37E-2  1.85E-2  2.50E-2    16
   17585   568.51  1.37E-2  1.83E-2  2.44E-2    16
   17590   568.35  1.35E-2  1.79E-2  2.37E-2    16
   17595   568.19  1.34E-2  1.75E-2  2.29E-2    16
   17600   568.02  1.28E-2  1.68E-2  2.21E-2    16
   17605   567.86  1.23E-2  1.62E-2  2.13E-2    16
   17610   567.70  1.19E-2  1.56E-2  2.05E-2    17
   17615   567.54  1.14E-2  1.50E-2  1.97E-2    17
   17620   567.38  1.09E-2  1.44E-2  1.90E-2    17
   17625   567.22  1.05E-2  1.41E-2  1.90E-2    17
   17630   567.06  9.70E-3  1.36E-2  1.90E-2    17
   17635   566.90  9.30E-3  1.33E-2  1.90E-2    17
   17640   566.74  9.30E-3  1.33E-2  1.90E-2    17
   17645   566.58  8.90E-3  1.30E-2  1.90E-2    17
   17650   566.42  8.80E-3  1.29E-2  1.90E-2    17
   17655   566.25  8.50E-3  1.27E-2  1.89E-2    17
   17660   566.09  8.20E-3  1.24E-2  1.87E-2    17
   17665   565.93  7.60E-3  1.19E-2  1.85E-2    17
   17670   565.77  7.00E-3  1.13E-2  1.84E-2    17
   17675   565.61  6.70E-3  1.10E-2  1.82E-2    17
   17680   565.45  6.30E-3  1.07E-2  1.81E-2    17
   17685   565.29  6.20E-3  1.05E-2  1.77E-2    17
   17690   565.13  6.00E-3  1.02E-2  1.73E-2    17
   17695   564.97  5.80E-3  9.90E-3  1.68E-2    17
   17700   564.82  5.50E-3  9.50E-3  1.64E-2    17
   17705   564.66  5.30E-3  9.20E-3  1.60E-2    17
   17710   564.50  5.20E-3  9.00E-3  1.55E-2    17
   17715   564.34  5.00E-3  8.70E-3  1.51E-2    17
   17720   564.18  4.50E-3  8.20E-3  1.50E-2    17
   17725   564.02  4.50E-3  8.20E-3  1.50E-2    17
   17730   563.86  4.30E-3  8.00E-3  1.50E-2    17
   17735   563.70  4.10E-3  7.80E-3  1.50E-2    17
   17740   563.54  4.20E-3  7.90E-3  1.50E-2    17
   17745   563.38  4.20E-3  7.90E-3  1.50E-2    17
   17750   563.22  4.00E-3  7.70E-3  1.48E-2    17
   17755   563.07  3.80E-3  7.30E-3  1.41E-2    17
   17760   562.91  3.70E-3  7.20E-3  1.40E-2    17
   17765   562.75  3.80E-3  7.40E-3  1.45E-2    17
   17770   562.59  3.60E-3  7.10E-3  1.39E-2    17
   17775   562.43  3.50E-3  7.00E-3  1.39E-2    17
   17780   562.27  3.60E-3  7.10E-3  1.41E-2    17
   17785   562.12  3.50E-3  7.00E-3  1.39E-2    17
   17790   561.96  3.50E-3  7.10E-3  1.43E-2    17
   17795   561.80  3.50E-3  7.10E-3  1.45E-2    17
   17800   561.64  3.20E-3  6.50E-3  1.34E-2    17
   17805   561.48  3.20E-3  6.50E-3  1.33E-2    17
   17810   561.33  3.30E-3  6.80E-3  1.41E-2    17
   17815   561.17  3.20E-3  6.60E-3  1.38E-2    17
   17820   561.01  3.20E-3  6.70E-3  1.39E-2    16
   17825   560.85  3.40E-3  7.00E-3  1.46E-2    16
   17830   560.70  3.20E-3  6.70E-3  1.40E-2    16
   17835   560.54  3.10E-3  6.50E-3  1.38E-2    16
   17840   560.38  3.20E-3  6.80E-3  1.43E-2    16
   17845   560.23  3.00E-3  6.40E-3  1.36E-2    16
   17850   560.07  3.20E-3  6.90E-3  1.47E-2    16
   17855   559.91  3.20E-3  6.90E-3  1.49E-2    16
   17860   559.76  3.60E-3  7.70E-3  1.64E-2    16
   17865   559.60  3.20E-3  7.00E-3  1.51E-2    16
   17870   559.44  3.20E-3  7.00E-3  1.51E-2    16
   17875   559.29  3.40E-3  7.40E-3  1.62E-2    16
   17880   559.13  3.50E-3  7.60E-3  1.66E-2    15
   17885   558.97  3.60E-3  7.90E-3  1.74E-2    15
   17890   558.82  3.10E-3  6.90E-3  1.54E-2    16
   17895   558.66  3.20E-3  7.10E-3  1.58E-2    16
   17900   558.50  3.30E-3  7.40E-3  1.66E-2    15
   17905   558.35  3.30E-3  7.40E-3  1.65E-2    15
   17910   558.19  3.50E-3  7.90E-3  1.77E-2    15
   17915   558.04  3.60E-3  8.10E-3  1.81E-2    15
   17920   557.88  3.70E-3  8.30E-3  1.85E-2    15
   17925   557.73  3.60E-3  8.20E-3  1.85E-2    15
   17930   557.57  3.70E-3  8.40E-3  1.90E-2    15
   17935   557.41  3.50E-3  8.00E-3  1.82E-2    15
   17940   557.26  3.40E-3  7.80E-3  1.81E-2    15
   17945   557.10  3.60E-3  8.20E-3  1.89E-2    15
   17950   556.95  3.60E-3  8.30E-3  1.92E-2    14
   17955   556.79  3.60E-3  8.40E-3  1.94E-2    14
   17960   556.64  3.60E-3  8.40E-3  1.95E-2    14
   17965   556.48  3.70E-3  8.60E-3  2.00E-2    14
   17970   556.33  3.70E-3  8.70E-3  2.03E-2    14
   17975   556.17  3.60E-3  8.50E-3  2.00E-2    14
   17980   556.02  3.50E-3  8.30E-3  1.95E-2    14
   17985   555.86  3.40E-3  8.10E-3  1.93E-2    14
   17990   555.71  3.30E-3  7.80E-3  1.86E-2    14
   17995   555.56  3.30E-3  7.90E-3  1.87E-2    14
   18000   555.40  3.20E-3  7.60E-3  1.82E-2    14
   18005   555.25  3.20E-3  7.70E-3  1.84E-2    14
   18010   555.09  3.00E-3  7.30E-3  1.78E-2    14
   18015   554.94  3.00E-3  7.30E-3  1.78E-2    14
   18020   554.78  2.90E-3  7.10E-3  1.76E-2    14
   18025   554.63  2.70E-3  6.60E-3  1.61E-2    15
   18030   554.48  2.60E-3  6.40E-3  1.58E-2    15
   18035   554.32  2.50E-3  6.20E-3  1.56E-2    15
   18040   554.17  2.40E-3  6.00E-3  1.52E-2    15
   18045   554.02  2.30E-3  5.80E-3  1.45E-2    15
   18050   553.86  2.30E-3  5.80E-3  1.45E-2    15
   18055   553.71  2.10E-3  5.40E-3  1.37E-2    15
   18060   553.56  2.00E-3  5.20E-3  1.33E-2    15
   18065   553.40  1.90E-3  4.90E-3  1.28E-2    15
   18070   553.25  1.80E-3  4.70E-3  1.22E-2    15
   18075   553.10  1.80E-3  4.60E-3  1.20E-2    15
   18080   552.94  1.60E-3  4.20E-3  1.09E-2    15
   18085   552.79  1.60E-3  4.20E-3  1.08E-2    15
   18090   552.64  1.70E-3  4.50E-3  1.17E-2    15
   18095   552.49  1.50E-3  4.00E-3  1.08E-2    15
   18100   552.33  1.50E-3  4.10E-3  1.10E-2    15
   18105   552.18  1.60E-3  4.30E-3  1.13E-2    15
   18110   552.03  1.50E-3  4.00E-3  1.06E-2    15
   18115   551.88  1.40E-3  3.80E-3  1.03E-2    15
   18120   551.72  1.20E-3  3.30E-3  9.30E-3    15
   18125   551.57  1.30E-3  3.50E-3  9.50E-3    15
   18130   551.42  1.30E-3  3.60E-3  9.70E-3    15
   18135   551.27  1.40E-3  3.80E-3  1.04E-2    15
   18140   551.11  1.40E-3  3.80E-3  1.04E-2    15
   18145   550.96  1.50E-3  4.20E-3  1.15E-2    15
   18150   550.81  1.60E-3  4.40E-3  1.22E-2    15
   18155   550.66  1.60E-3  4.40E-3  1.19E-2    15
   18160   550.51  1.40E-3  3.90E-3  1.09E-2    15
   18165   550.36  1.40E-3  3.90E-3  1.07E-2    15
   18170   550.20  1.50E-3  4.10E-3  1.14E-2    15
   18175   550.05  1.70E-3  4.70E-3  1.28E-2    14
   18180   549.90  1.70E-3  4.70E-3  1.31E-2    14
   18185   549.75  1.60E-3  4.50E-3  1.24E-2    14
   18190   549.60  1.80E-3  5.00E-3  1.40E-2    14
   18195   549.45  1.80E-3  5.10E-3  1.43E-2    14
   18200   549.30  1.90E-3  5.30E-3  1.50E-2    14
   18205   549.15  2.10E-3  5.90E-3  1.65E-2    13
   18210   549.00  2.20E-3  6.10E-3  1.70E-2    13
   18215   548.85  2.40E-3  6.70E-3  1.85E-2    13
   18220   548.69  2.80E-3  7.50E-3  2.01E-2    13
   18225   548.54  3.10E-3  8.20E-3  2.16E-2    12
   18230   548.39  3.30E-3  8.70E-3  2.31E-2    12
   18235   548.24  3.50E-3  9.30E-3  2.46E-2    12
   18240   548.09  3.90E-3  1.01E-2  2.61E-2    12
   18245   547.94  4.40E-3  1.10E-2  2.75E-2    11
   18250   547.79  4.90E-3  1.21E-2  3.01E-2    11
   18255   547.64  6.00E-3  1.41E-2  3.33E-2    11
   18260   547.49  7.00E-3  1.60E-2  3.64E-2    10
   18265   547.34  8.10E-3  1.79E-2  3.94E-2    10
   18270   547.19  9.60E-3  2.02E-2  4.25E-2    10
   18275   547.04  1.09E-2  2.23E-2  4.56E-2    10
   18280   546.89  1.26E-2  2.48E-2  4.87E-2     9
   18285   546.74  1.53E-2  2.84E-2  5.27E-2     9
   18290   546.59  1.74E-2  3.14E-2  5.68E-2     9
   18295   546.45  2.04E-2  3.52E-2  6.08E-2     9
   18300   546.30  2.43E-2  3.97E-2  6.48E-2     8
   18305   546.15  2.83E-2  4.42E-2  6.89E-2     8
   18310   546.00  3.30E-2  4.90E-2  7.28E-2     8
   18315   545.85  3.73E-2  5.37E-2  7.72E-2     8
   18320   545.70  4.24E-2  5.91E-2  8.25E-2     8
   18325   545.55  4.83E-2  6.50E-2  8.76E-2     7
   18330   545.40  5.52E-2  7.16E-2  9.28E-2     7
   18335   545.25  6.22E-2  7.80E-2  9.79E-2     7
   18340   545.10  6.98E-2  8.48E-2  1.03E-1     7
   18345   544.96  7.95E-2  9.28E-2  1.08E-1     7
   18350   544.81  8.78E-2  9.97E-2  1.13E-1     7
   18355   544.66  9.65E-2  1.06E-1  1.15E-1     6
   18360   544.51  1.06E-1  1.12E-1  1.17E-1     6
   18365   544.36  1.13E-1  1.16E-1  1.19E-1     6
   18370   544.21  1.26E-1  1.24E-1  1.21E-1     6
   18375   544.07  1.35E-1  1.29E-1  1.23E-1     6
   18380   543.92  1.40E-1  1.32E-1  1.25E-1     6
   18385   543.77  1.45E-1  1.35E-1  1.27E-1     6
   18390   543.62  1.56E-1  1.41E-1  1.28E-1     6
   18395   543.47  1.67E-1  1.47E-1  1.29E-1     6
   18400   543.33  1.76E-1  1.51E-1  1.30E-1     6
   18405   543.18  1.77E-1  1.52E-1  1.31E-1     6
   18410   543.03  1.74E-1  1.52E-1  1.32E-1     6
   18415   542.88  1.70E-1  1.51E-1  1.33E-1     6
   18420   542.74  1.69E-1  1.50E-1  1.33E-1     6
   18425   542.59  1.72E-1  1.50E-1  1.31E-1     6
   18430   542.44  1.73E-1  1.50E-1  1.30E-1     6
   18435   542.30  1.72E-1  1.48E-1  1.28E-1     6
   18440   542.15  1.68E-1  1.45E-1  1.26E-1     6
   18445   542.00  1.61E-1  1.42E-1  1.25E-1     6
   18450   541.85  1.56E-1  1.39E-1  1.23E-1     6
   18455   541.71  1.47E-1  1.33E-1  1.20E-1     6
   18460   541.56  1.42E-1  1.28E-1  1.15E-1     6
   18465   541.41  1.34E-1  1.22E-1  1.11E-1     6
   18470   541.27  1.30E-1  1.18E-1  1.07E-1     6
   18475   541.12  1.27E-1  1.14E-1  1.02E-1     6
   18480   540.98  1.17E-1  1.07E-1  9.81E-2     7
   18485   540.83  1.08E-1  1.01E-1  9.38E-2     7
   18490   540.68  1.05E-1  9.69E-2  8.95E-2     7
   18495   540.54  1.00E-1  9.25E-2  8.56E-2     7
   18500   540.39  9.09E-2  8.62E-2  8.18E-2     7
   18505   540.24  8.42E-2  8.10E-2  7.79E-2     7
   18510   540.10  8.02E-2  7.70E-2  7.40E-2     7
   18515   539.95  7.69E-2  7.35E-2  7.02E-2     7
   18520   539.81  7.25E-2  6.93E-2  6.62E-2     8
   18525   539.66  6.91E-2  6.59E-2  6.28E-2     8
   18530   539.52  6.61E-2  6.35E-2  6.10E-2     8
   18535   539.37  6.40E-2  6.14E-2  5.90E-2     8
   18540   539.22  6.03E-2  5.87E-2  5.71E-2     8
   18545   539.08  5.36E-2  5.43E-2  5.51E-2     8
   18550   538.93  5.14E-2  5.22E-2  5.31E-2     8
   18555   538.79  5.23E-2  5.17E-2  5.11E-2     8
   18560   538.64  5.22E-2  5.08E-2  4.94E-2     8
   18565   538.50  5.16E-2  4.98E-2  4.80E-2     8
   18570   538.35  4.94E-2  4.79E-2  4.65E-2     8
   18575   538.21  4.77E-2  4.64E-2  4.51E-2     8
   18580   538.06  4.69E-2  4.52E-2  4.36E-2     9
   18585   537.92  4.39E-2  4.30E-2  4.22E-2     9
   18590   537.77  4.18E-2  4.12E-2  4.07E-2     9
   18595   537.63  4.06E-2  3.99E-2  3.93E-2     9
   18600   537.48  3.81E-2  3.79E-2  3.78E-2     9
   18605   537.34  3.65E-2  3.64E-2  3.64E-2     9
   18610   537.20  3.38E-2  3.44E-2  3.50E-2     9
   18615   537.05  3.01E-2  3.18E-2  3.35E-2     9
   18620   536.91  2.77E-2  2.98E-2  3.21E-2     9
   18625   536.76  2.66E-2  2.85E-2  3.06E-2     9
   18630   536.62  2.60E-2  2.76E-2  2.92E-2     9
   18635   536.48  2.43E-2  2.62E-2  2.82E-2    10
   18640   536.33  2.34E-2  2.53E-2  2.74E-2    10
   18645   536.19  2.23E-2  2.43E-2  2.65E-2    10
   18650   536.04  2.01E-2  2.27E-2  2.57E-2    10
   18655   535.90  1.82E-2  2.12E-2  2.48E-2    10
   18660   535.76  1.70E-2  2.02E-2  2.39E-2    10
   18665   535.61  1.63E-2  1.94E-2  2.31E-2    10
   18670   535.47  1.49E-2  1.84E-2  2.26E-2    10
   18675   535.33  1.37E-2  1.74E-2  2.22E-2    10
   18680   535.18  1.34E-2  1.71E-2  2.17E-2    10
   18685   535.04  1.33E-2  1.68E-2  2.13E-2    10
   18690   534.90  1.28E-2  1.64E-2  2.09E-2    10
   18695   534.75  1.24E-2  1.59E-2  2.05E-2    10
   18700   534.61  1.10E-2  1.48E-2  2.00E-2    10
   18705   534.47  1.05E-2  1.45E-2  1.99E-2    10
   18710   534.32  1.00E-2  1.40E-2  1.97E-2    10
   18715   534.18  9.40E-3  1.36E-2  1.96E-2    10
   18720   534.04  9.00E-3  1.32E-2  1.95E-2    10
   18725   533.90  8.50E-3  1.28E-2  1.94E-2    10
   18730   533.75  8.50E-3  1.28E-2  1.92E-2    10
   18735   533.61  8.20E-3  1.25E-2  1.91E-2    10
   18740   533.47  8.10E-3  1.24E-2  1.90E-2    10
   18745   533.33  8.20E-3  1.25E-2  1.92E-2    10
   18750   533.18  8.30E-3  1.27E-2  1.93E-2    10
   18755   533.04  7.70E-3  1.23E-2  1.95E-2    10
   18760   532.90  6.80E-3  1.15E-2  1.96E-2    10
   18765   532.76  6.40E-3  1.12E-2  1.97E-2    10
   18770   532.62  6.20E-3  1.11E-2  1.99E-2    10
   18775   532.48  5.80E-3  1.08E-2  2.00E-2    10
   18780   532.33  5.70E-3  1.07E-2  2.00E-2    10
   18785   532.19  5.30E-3  1.03E-2  2.00E-2    10
   18790   532.05  4.60E-3  9.60E-3  2.00E-2    10
   18795   531.91  4.60E-3  9.60E-3  2.00E-2    10
   18800   531.77  4.30E-3  9.30E-3  2.00E-2    10
   18805   531.63  4.10E-3  9.10E-3  2.00E-2    10
   18810   531.48  4.10E-3  9.10E-3  2.00E-2    10
   18815   531.34  3.80E-3  8.80E-3  2.05E-2    10
   18820   531.20  3.30E-3  8.30E-3  2.09E-2    10
   18825   531.06  3.10E-3  8.10E-3  2.13E-2     9
   18830   530.92  2.90E-3  7.90E-3  2.17E-2     9
   18835   530.78  3.00E-3  8.20E-3  2.22E-2     9
   18840   530.64  2.60E-3  7.70E-3  2.26E-2     9
   18845   530.50  2.60E-3  7.70E-3  2.30E-2     9
   18850   530.36  2.40E-3  7.40E-3  2.30E-2     9
   18855   530.22  2.00E-3  6.80E-3  2.30E-2     9
   18860   530.08  1.90E-3  6.60E-3  2.30E-2     9
   18865   529.93  2.00E-3  6.80E-3  2.30E-2     9
   18870   529.79  2.00E-3  6.80E-3  2.30E-2     9
   18875   529.65  2.00E-3  6.80E-3  2.30E-2     9
   18880   529.51  2.00E-3  6.80E-3  2.30E-2     9
   18885   529.37  2.00E-3  6.80E-3  2.30E-2     9
   18890   529.23  2.10E-3  6.90E-3  2.29E-2     9
   18895   529.09  1.90E-3  6.60E-3  2.28E-2     9
   18900   528.95  1.70E-3  6.20E-3  2.28E-2     9
   18905   528.81  1.90E-3  6.60E-3  2.27E-2     9
   18910   528.67  1.90E-3  6.60E-3  2.26E-2     9
   18915   528.53  1.40E-3  5.60E-3  2.26E-2     9
   18920   528.39  1.30E-3  5.40E-3  2.25E-2     9
   18925   528.25  1.50E-3  5.80E-3  2.27E-2     9
   18930   528.12  1.70E-3  6.20E-3  2.29E-2     9
   18935   527.98  1.50E-3  5.90E-3  2.31E-2     9
   18940   527.84  1.60E-3  6.10E-3  2.33E-2     9
   18945   527.70  1.60E-3  6.10E-3  2.36E-2     9
   18950   527.56  1.60E-3  6.20E-3  2.38E-2     9
   18955   527.42  1.60E-3  6.20E-3  2.40E-2     9
   18960   527.28  1.60E-3  6.20E-3  2.40E-2     9
   18965   527.14  1.70E-3  6.40E-3  2.40E-2     9
   18970   527.00  1.60E-3  6.20E-3  2.40E-2     9
   18975   526.86  1.40E-3  5.80E-3  2.40E-2     9
   18980   526.72  1.20E-3  5.40E-3  2.40E-2     9
   18985   526.59  1.40E-3  5.80E-3  2.40E-2     9
   18990   526.45  1.60E-3  6.20E-3  2.40E-2     9
   18995   526.31  1.40E-3  5.80E-3  2.39E-2     8
   19000   526.17  1.50E-3  6.00E-3  2.38E-2     8
   19005   526.03  1.60E-3  6.20E-3  2.37E-2     8
   19010   525.89  1.90E-3  6.70E-3  2.35E-2     8
   19015   525.75  2.30E-3  7.30E-3  2.34E-2     8
   19020   525.62  2.30E-3  7.30E-3  2.33E-2     8
   19025   525.48  1.90E-3  6.60E-3  2.32E-2     8
   19030   525.34  1.80E-3  6.40E-3  2.30E-2     8
   19035   525.20  2.20E-3  7.10E-3  2.30E-2     8
   19040   525.06  2.30E-3  7.30E-3  2.30E-2     8
   19045   524.93  2.40E-3  7.40E-3  2.30E-2     8
   19050   524.79  2.40E-3  7.40E-3  2.30E-2     8
   19055   524.65  2.50E-3  7.60E-3  2.30E-2     8
   19060   524.51  2.70E-3  7.90E-3  2.30E-2     8
   19065   524.38  2.80E-3  8.00E-3  2.30E-2     8
   19070   524.24  2.90E-3  8.10E-3  2.29E-2     8
   19075   524.10  2.70E-3  7.80E-3  2.26E-2     8
   19080   523.96  3.20E-3  8.40E-3  2.23E-2     8
   19085   523.83  3.60E-3  8.90E-3  2.20E-2     8
   19090   523.69  3.50E-3  8.70E-3  2.18E-2     8
   19095   523.55  3.50E-3  8.70E-3  2.15E-2     8
   19100   523.41  3.60E-3  8.70E-3  2.12E-2     8
   19105   523.28  3.50E-3  8.60E-3  2.10E-2     8
   19110   523.14  3.20E-3  8.20E-3  2.08E-2     8
   19115   523.00  3.70E-3  8.80E-3  2.07E-2     8
   19120   522.87  4.00E-3  9.10E-3  2.06E-2     8
   19125   522.73  4.00E-3  9.00E-3  2.04E-2     8
   19130   522.59  4.00E-3  9.00E-3  2.03E-2     8
   19135   522.46  3.80E-3  8.80E-3  2.02E-2     8
   19140   522.32  4.10E-3  9.10E-3  2.01E-2     8
   19145   522.18  4.60E-3  9.40E-3  1.93E-2     8
   19150   522.05  4.20E-3  8.80E-3  1.84E-2     8
   19155   521.91  3.90E-3  8.30E-3  1.75E-2     9
   19160   521.78  4.10E-3  8.30E-3  1.67E-2     9
   19165   521.64  4.00E-3  7.90E-3  1.58E-2     9
   19170   521.50  3.70E-3  7.40E-3  1.49E-2     9
   19175   521.37  3.60E-3  7.10E-3  1.40E-2     9
   19180   521.23  4.00E-3  7.20E-3  1.31E-2     9
   19185   521.10  3.70E-3  6.90E-3  1.29E-2     9
   19190   520.96  3.90E-3  7.10E-3  1.30E-2     9
   19195   520.82  4.00E-3  7.20E-3  1.30E-2     9
   19200   520.69  3.20E-3  6.40E-3  1.30E-2     9
   19205   520.55  2.80E-3  6.00E-3  1.30E-2     9
   19210   520.42  3.20E-3  6.40E-3  1.30E-2     9
   19215   520.28  3.10E-3  6.40E-3  1.31E-2     9
   19220   520.15  3.10E-3  6.30E-3  1.29E-2     9
   19225   520.01  2.60E-3  5.30E-3  1.09E-2     9
   19230   519.88  2.20E-3  4.50E-3  9.30E-3     9
   19235   519.74  2.20E-3  4.60E-3  9.50E-3     9
   19240   519.61  2.40E-3  4.90E-3  1.01E-2     9
   19245   519.47  2.60E-3  5.30E-3  1.08E-2     9
   19250   519.34  2.50E-3  5.10E-3  1.06E-2     9
   19255   519.20  1.90E-3  3.90E-3  8.20E-3     9
   19260   519.07  1.40E-3  3.00E-3  6.30E-3    10
   19265   518.93  1.80E-3  3.80E-3  7.90E-3     9
   19270   518.80  2.20E-3  4.60E-3  9.50E-3     9
   19275   518.66  1.90E-3  4.00E-3  8.40E-3     9
   19280   518.53  1.10E-3  2.30E-3  5.00E-3    10
   19285   518.39  5.00E-4  1.00E-3  2.00E-3    11
   19290   518.26  6.00E-4  9.00E-4  1.50E-3    11
   19295   518.12  7.00E-4  1.70E-3  3.90E-3    10
   19300   517.99  9.00E-4  1.90E-3  4.10E-3    10
   19325   517.32  8.00E-4  1.70E-3  3.60E-3    10
   19350   516.65  7.00E-4  1.40E-3  2.70E-3    10
   19375   515.99  6.00E-4  1.20E-3  2.40E-3    10
   19400   515.32  6.00E-4  1.10E-3  2.20E-3    10
   19425   514.66  7.00E-4  1.30E-3  2.30E-3    10
   19450   514.00  1.00E-3  1.80E-3  3.10E-3    10
   19475   513.34  1.60E-3  2.70E-3  4.50E-3     9
   19500   512.68  2.90E-3  4.60E-3  7.40E-3     9
   19525   512.02  5.00E-3  7.50E-3  1.12E-2     8
   19550   511.37  7.80E-3  1.04E-2  1.40E-2     8
   19575   510.71  1.07E-2  1.28E-2  1.54E-2     7
   19600   510.06  1.20E-2  1.39E-2  1.61E-2     7
   19625   509.41  1.13E-2  1.31E-2  1.53E-2     7
   19650   508.76  9.90E-3  1.18E-2  1.40E-2     7
   19675   508.12  8.50E-3  1.06E-2  1.32E-2     7
   19700   507.47  6.90E-3  9.50E-3  1.30E-2     7
   19725   506.83  5.30E-3  8.20E-3  1.28E-2     7
   19750   506.19  4.30E-3  7.20E-3  1.20E-2     7
   19775   505.55  3.50E-3  6.30E-3  1.14E-2     7
   19800   504.91  2.90E-3  5.60E-3  1.08E-2     7
   19825   504.27  2.50E-3  5.10E-3  1.03E-2     7
   19850   503.64  2.10E-3  4.50E-3  9.70E-3     7
   19875   503.00  1.60E-3  3.70E-3  8.40E-3     7
   19900   502.37  1.30E-3  3.10E-3  7.20E-3     7
   19925   501.74  1.00E-3  2.50E-3  6.30E-3     7
   19950   501.11  7.00E-4  2.00E-3  5.80E-3     7
   19975   500.49  6.00E-4  1.80E-3  5.30E-3     7
   20000   499.86  5.00E-4  1.50E-3  4.40E-3     7
   20025   499.24  4.00E-4  1.20E-3  3.80E-3     7
   20050   498.61  3.00E-4  1.00E-3  3.20E-3     7
   20075   497.99  2.00E-4  7.00E-4  2.30E-3     7
   20100   497.37  2.00E-4  6.00E-4  1.90E-3     7
   20125   496.76  1.00E-4  4.00E-4  1.60E-3     7
   20150   496.14  1.00E-4  3.00E-4  1.20E-3     7
   20175   495.52  1.00E-4  3.00E-4  9.00E-4     7
   20200   494.91  1.00E-5  1.00E-4  6.00E-4     7
   20225   494.30  1.00E-5  1.00E-4  6.00E-4     7
   20250   493.69  1.00E-5  1.00E-4  7.00E-4     7
   20275   493.08  1.00E-4  3.00E-4  1.10E-3     7
   20300   492.47  1.00E-4  4.00E-4  1.30E-3     7
   20325   491.87  1.00E-4  3.00E-4  1.20E-3     7
   20350   491.26  1.00E-4  4.00E-4  1.50E-3     7
   20375   490.66  2.00E-4  6.00E-4  1.70E-3     6
   20400   490.06  2.00E-4  6.00E-4  1.80E-3     6
   20425   489.46  3.00E-4  9.00E-4  2.50E-3     6
   20450   488.86  7.00E-4  2.00E-3  5.50E-3     6
   20475   488.26  1.80E-3  4.60E-3  1.17E-2     5
   20500   487.67  4.50E-3  9.30E-3  1.94E-2     5
   20525   487.07  9.20E-3  1.52E-2  2.50E-2     4
   20550   486.48  2.26E-2  2.51E-2  2.79E-2     4
   20575   485.89  3.58E-2  3.21E-2  2.88E-2     4
   20600   485.30  3.45E-2  3.02E-2  2.65E-2     4
   20625   484.71  2.44E-2  2.19E-2  1.97E-2     4
   20650   484.13  1.35E-2  1.37E-2  1.40E-2     5
   20675   483.54  7.90E-3  9.90E-3  1.24E-2     5
   20700   482.96  6.50E-3  8.60E-3  1.13E-2     5
   20725   482.37  6.00E-3  8.10E-3  1.10E-2     5
   20750   481.79  5.30E-3  7.50E-3  1.06E-2     5
   20775   481.21  4.40E-3  6.50E-3  9.50E-3     5
   20800   480.63  3.60E-3  5.50E-3  8.50E-3     5
   20825   480.06  2.90E-3  4.60E-3  7.40E-3     5
   20850   479.48  2.20E-3  3.70E-3  6.10E-3     5
   20875   478.91  1.60E-3  2.80E-3  4.90E-3     5
   20900   478.34  1.20E-3  2.20E-3  4.00E-3     5
   20925   477.76  9.00E-4  1.70E-3  3.40E-3     5
   20950   477.19  8.00E-4  1.50E-3  3.00E-3     5
   20975   476.62  6.00E-4  1.20E-3  2.40E-3     5
   21000   476.06  4.00E-4  9.00E-4  1.90E-3     5
   21025   475.49  3.00E-4  7.00E-4  1.50E-3     5
   21050   474.93  2.00E-4  5.00E-4  1.20E-3     5
   21075   474.36  2.00E-4  5.00E-4  1.10E-3     5
   21100   473.80  1.00E-4  3.00E-4  9.00E-4     5
   21125   473.24  1.00E-4  3.00E-4  8.00E-4     5
   21150   472.68  1.00E-4  3.00E-4  9.00E-4     5
   21175   472.12  1.00E-4  3.00E-4  9.00E-4     5
   21200   471.57  1.00E-4  3.00E-4  7.00E-4     5
   21225   471.01  1.00E-5  1.00E-4  5.00E-4     5
   21250   470.46  1.00E-5  1.00E-4  5.00E-4     4
   21275   469.90  1.00E-5  1.00E-4  5.00E-4     4
   21300   469.35  1.00E-5  1.00E-4  5.00E-4     4
   21325   468.80  1.00E-5  1.00E-4  5.00E-4     4
   21350   468.25  1.00E-4  3.00E-4  7.00E-4     4
   21375   467.71  1.00E-4  3.00E-4  1.10E-3     4
   21400   467.16  2.00E-4  6.00E-4  1.70E-3     4
   21425   466.61  3.00E-4  8.00E-4  2.40E-3     4
   21450   466.07  3.00E-4  9.00E-4  2.60E-3     4
   21475   465.53  3.00E-4  9.00E-4  2.50E-3     4
   21500   464.99  2.00E-4  6.00E-4  1.80E-3     4
   21525   464.45  1.00E-4  4.00E-4  1.40E-3     4
   21550   463.91  1.00E-4  3.00E-4  1.20E-3     4
   21575   463.37  1.00E-4  3.00E-4  8.00E-4     4
   21600   462.83  1.00E-5  1.00E-4  7.00E-4     4
   21625   462.30  1.00E-4  4.00E-4  1.40E-3     4
   21650   461.76  2.00E-4  7.00E-4  2.30E-3     4
   21675   461.23  4.00E-4  1.30E-3  4.20E-3     3
   21700   460.70  9.00E-4  2.70E-3  8.00E-3     3
   21725   460.17  1.90E-3  4.90E-3  1.28E-2     3
   21750   459.64  2.60E-3  6.40E-3  1.60E-2     3
   21775   459.11  2.20E-3  5.50E-3  1.40E-2     3
   21800   458.59  1.60E-3  4.10E-3  1.06E-2     3
   21825   458.06  1.10E-3  2.90E-3  7.70E-3     3
   21850   457.54  7.00E-4  1.90E-3  5.30E-3     3
   21875   457.01  6.00E-4  1.70E-3  4.70E-3     3
   21900   456.49  6.00E-4  1.60E-3  4.30E-3     3
   21925   455.97  5.00E-4  1.30E-3  3.60E-3     3
   21950   455.45  4.00E-4  1.10E-3  3.00E-3     3
   21975   454.93  3.00E-4  9.00E-4  2.60E-3     3
   22000   454.42  3.00E-4  9.00E-4  2.60E-3     3
   22025   453.90  3.00E-4  8.00E-4  2.40E-3     3
   22050   453.39  2.00E-4  6.00E-4  1.60E-3     3
   22075   452.87  1.00E-4  3.00E-4  9.00E-4     3
   22100   452.36  1.00E-4  3.00E-4  1.00E-3     3
   22125   451.85  1.00E-4  3.00E-4  1.00E-3     3
   22150   451.34  1.00E-4  2.00E-4  6.00E-4     3
   22175   450.83  1.00E-5  1.00E-4  5.00E-4     3
   22200   450.32  1.00E-5  1.00E-4  2.00E-4     3
   22225   449.82  1.00E-5  1.00E-5  1.00E-5     3
   22250   449.31  1.00E-5  1.00E-4  1.00E-4     3
   22275   448.81  1.00E-5  1.00E-4  3.00E-4     3
   22300   448.30  1.00E-5  1.00E-4  3.00E-4     3
   22325   447.80  1.00E-5  1.00E-5  1.00E-5     3
   22350   447.30  1.00E-5  1.00E-5  1.00E-5     3
   22375   446.80  1.00E-5  1.00E-5  1.00E-5     3
   22400   446.30  1.00E-5  1.00E-5  1.00E-5     3
   22425   445.81  1.00E-5  1.00E-5  1.00E-5     3
   22450   445.31  1.00E-5  1.00E-5  1.00E-5     3
   22475   444.81  1.00E-5  1.00E-5  1.00E-5     3
   22500   444.32  1.00E-4  2.00E-4  6.00E-4     3
   22525   443.83  2.00E-4  6.00E-4  1.60E-3     2
   22550   443.33  4.00E-4  1.10E-3  3.00E-3     2
   22575   442.84  8.00E-4  2.10E-3  5.70E-3     2
   22600   442.35  1.60E-3  3.60E-3  8.10E-3     2
   22625   441.86  2.60E-3  4.90E-3  9.20E-3     2
   22650   441.38  3.80E-3  6.30E-3  1.04E-2     2
   22675   440.89  3.90E-3  6.30E-3  1.02E-2     2
   22700   440.40  2.90E-3  4.80E-3  8.10E-3     2
   22725   439.92  1.80E-3  3.10E-3  5.20E-3     2
   22750   439.44  8.00E-4  1.40E-3  2.40E-3     2
   22775   438.95  3.00E-4  5.00E-4  9.00E-4     2
   22800   438.47  1.00E-4  2.00E-4  5.00E-4     2
   22825   437.99  3.00E-4  5.00E-4  1.00E-3     2
   22850   437.51  4.00E-4  7.00E-4  1.40E-3     2
   22875   437.04  5.00E-4  9.00E-4  1.60E-3     2
   22900   436.56  6.00E-4  1.00E-3  1.80E-3     2
   22925   436.08  5.00E-4  9.00E-4  1.50E-3     2
   22950   435.61  3.00E-4  5.00E-4  9.00E-4     2
   22975   435.13  3.00E-4  5.00E-4  9.00E-4     2
   23000   434.66  3.00E-4  6.00E-4  1.10E-3     2
   23025   434.19  2.00E-4  4.00E-4  8.00E-4     2
   23050   433.72  2.00E-4  3.00E-4  6.00E-4     2
   23075   433.25  2.00E-4  4.00E-4  8.00E-4     2
   23100   432.78  1.00E-4  2.00E-4  4.00E-4     2
   23125   432.31  1.00E-5  1.00E-4  2.00E-4     2
   23150   431.84  1.00E-4  2.00E-4  4.00E-4     2
   23175   431.38  1.00E-4  1.00E-4  2.00E-4     2
   23200   430.91  1.00E-5  1.00E-5  1.00E-5     2
   23225   430.45  1.00E-5  1.00E-5  1.00E-5     2
   23250   429.99  1.00E-5  1.00E-5  1.00E-5     2
   23275   429.52  1.00E-5  1.00E-5  1.00E-5     2
   23300   429.06  1.00E-5  1.00E-5  1.00E-5     2
   23325   428.60  1.00E-5  1.00E-5  1.00E-5     2
   23350   428.15  1.00E-5  1.00E-5  1.00E-5     2
   23375   427.69  1.00E-5  1.00E-5  1.00E-5     2
   23400   427.23  1.00E-5  1.00E-5  1.00E-5     2
   23425   426.77  1.00E-5  1.00E-5  1.00E-5     2
   23450   426.32  1.00E-5  1.00E-5  1.00E-5     2
   23475   425.87  1.00E-5  1.00E-5  1.00E-5     2
   23500   425.41  1.00E-5  1.00E-5  1.00E-5     2
   23525   424.96  1.00E-5  1.00E-5  1.00E-5     2
   23550   424.51  1.00E-5  1.00E-5  1.00E-5     2
   23575   424.06  1.00E-5  1.00E-5  1.00E-5     2
   23600   423.61  1.00E-5  1.00E-5  1.00E-5     2
   23625   423.16  1.00E-5  1.00E-5  1.00E-5     2
   23650   422.71  1.00E-5  1.00E-5  1.00E-5     2
   23675   422.27  1.00E-5  1.00E-5  1.00E-5     2
   23700   421.82  1.00E-5  1.00E-4  1.00E-4     1
   23725   421.38  1.00E-4  2.00E-4  3.00E-4     1
   23750   420.93  2.00E-4  3.00E-4  6.00E-4     1
   23775   420.49  2.00E-4  4.00E-4  8.00E-4     1
   23800   420.05  3.00E-4  5.00E-4  1.00E-3     1
   23825   419.61  3.00E-4  6.00E-4  1.10E-3     1
   23850   419.17  2.00E-4  4.00E-4  7.00E-4     1
   23875   418.73  1.00E-4  2.00E-4  3.00E-4     1
   23900   418.29  1.00E-5  1.00E-4  1.00E-4     1
   23925   417.86  1.00E-5  1.00E-5  1.00E-5     1
   23950   417.42  1.00E-5  1.00E-5  1.00E-5     1
   23975   416.98  1.00E-5  1.00E-5  1.00E-5     1
   24000   416.55  1.00E-5  1.00E-5  1.00E-5     1
   24025   416.12  1.00E-5  1.00E-5  1.00E-5     1
   24050   415.68  1.00E-5  1.00E-5  1.00E-5     1
   24075   415.25  1.00E-5  1.00E-5  1.00E-5     1
   24100   414.82  1.00E-5  1.00E-5  1.00E-5     1
   24125   414.39  1.00E-5  1.00E-5  1.00E-5     1
   24150   413.96  1.00E-5  1.00E-5  1.00E-5     1
   24175   413.53  1.00E-5  1.00E-5  1.00E-5     1
   24200   413.11  1.00E-5  1.00E-5  1.00E-5     1
   24225   412.68  1.00E-5  1.00E-5  1.00E-5     1
   24250   412.25  1.00E-5  1.00E-5  1.00E-5     1
   24275   411.83  1.00E-5  1.00E-5  1.00E-5     1
   24300   411.41  1.00E-5  1.00E-5  1.00E-5     1
   24325   410.98  1.00E-5  1.00E-5  1.00E-5     1
   24350   410.56  1.00E-5  1.00E-5  1.00E-5     1
   24375   410.14  1.00E-5  1.00E-5  1.00E-5     1
   24400   409.72  1.00E-5  1.00E-5  1.00E-5     1
   24425   409.30  1.00E-5  1.00E-5  1.00E-5     1
   24450   408.88  1.00E-5  1.00E-5  1.00E-5     1
   24475   408.46  1.00E-5  1.00E-5  1.00E-5     1
   24500   408.05  1.00E-5  1.00E-5  1.00E-5     1
   24525   407.63  1.00E-5  1.00E-4  2.00E-4     1
   24550   407.22  1.00E-4  2.00E-4  4.00E-4     1
   24575   406.80  2.00E-4  4.00E-4  7.00E-4     1
   24600   406.39  3.00E-4  5.00E-4  1.00E-3     1
   24625   405.98  3.00E-4  6.00E-4  1.10E-3     1
   24650   405.56  2.00E-4  4.00E-4  7.00E-4     1
   24675   405.15  1.00E-5  1.00E-4  1.00E-4     1
   24700   404.74  1.00E-5  1.00E-5  1.00E-5     1
   24725   404.33  1.00E-5  1.00E-5  1.00E-5     1
   24750   403.93  1.00E-5  1.00E-5  1.00E-5     1
   24775   403.52  1.00E-5  1.00E-5  1.00E-5     1
   24800   403.11  1.00E-5  1.00E-5  1.00E-5     1
   24825   402.71  1.00E-5  1.00E-5  1.00E-5     1
   24850   402.30  1.00E-5  1.00E-5  1.00E-5     1
   24875   401.90  1.00E-5  1.00E-5  1.00E-5     1
   24900   401.49  1.00E-5  1.00E-5  1.00E-5     1
   24925   401.09  1.00E-5  1.00E-5  1.00E-5     1
   24950   400.69  1.00E-5  1.00E-5  1.00E-5     1
   24975   400.29  1.00E-5  1.00E-5  1.00E-5     1
   25000   399.89  1.00E-5  1.00E-5  1.00E-5     1
